time,seconds_elapsed,z,y,x
1775509238727228700,0.081228759765625,0.45856852837502954,-0.0450952792674303,-0.03653306106340606
1775509238737161700,0.09116162109375,0.3129717244386673,0.05456365709751844,0.0683445004323963
1775509238747094500,0.101094482421875,0.20588088450729847,0.1240428515151143,0.14655514584081247
1775509238757027600,0.111027587890625,0.041406361621618266,0.08676555252224206,0.1481916975340806
1775509238766960600,0.120960693359375,-0.10611819550693034,0.01384498547911644,0.08871085963742807
1775509238776893700,0.130893798828125,-0.18126023799180985,-0.02396276712864637,0.0224208805820439
1775509238786826500,0.140826416015625,-0.24639877285659312,-0.05504208826422691,-0.031868297822494056
1775509238796759600,0.150759521484375,-0.25698563332259655,-0.03796849612742662,-0.060182940017711364
1775509238806692600,0.160692626953125,-0.18522446544766424,0.03698503804802895,-0.006575012742448598
1775509238816625700,0.170625732421875,-0.1157446865081787,0.040454467724263664,0.021018731299694626
1775509238826558500,0.180558349609375,-0.053690673655271526,-0.027683248956501483,-0.01911855110102333
1775509238836491500,0.190491455078125,-0.015249007058143615,-0.08288169682621956,-0.06334242696193979
1775509238846424600,0.200424560546875,-0.006891513079404831,-0.04535597603023052,-0.07976541883605531
1775509238856357600,0.210357666015625,-0.041945290803909296,0.06051613576114177,-0.05699964750621002
1775509238866290700,0.220290771484375,0.038946693509817124,0.10396627817004918,-0.028542286071786657
1775509238876223500,0.230223388671875,0.142732646676898,0.07233136897832154,0.013565300888055935
1775509238886156500,0.240156494140625,0.2231248647749424,0.03510580017268657,0.030411258281441405
1775509238896089600,0.250089599609375,0.21610592592358588,0.001169043779373169,0.00043658305266872045
1775509238906022700,0.260022705078125,0.15904782166182993,-0.0330807240858674,-0.03791096638706513
1775509238915955500,0.26995556640625,0.0836813227713108,-0.03601356266736984,-0.011274733132310212
1775509238925887200,0.27988720703125,0.04948211604952812,0.004309387631714344,0.04888918252452276
1775509238935820300,0.2898203125,0.062032385542988774,0.030455051757395265,0.09764642749875783
1775509238945753300,0.29975341796875,0.12019465165436267,0.019647534278035162,0.17412863254621624
1775509238955686400,0.309686279296875,0.199274033588171,-0.008968319353461264,0.22373631120417264
1775509238965619200,0.319619140625,0.22075696659982202,-0.017547054867446423,0.24035204003825783
1775509238975552300,0.32955224609375,0.16590017177462577,-0.010269172818958758,0.2508174295490607
1775509238985485300,0.3394853515625,0.12023849079608917,0.01021510454416275,0.24425540415234862
1775509238995418400,0.34941845703125,0.1540922450810671,-0.01032879405170679,0.19586455393824725
1775509239005351400,0.359351318359375,0.12487901007831095,-0.0680915394514799,0.10555352909518405
1775509239015284200,0.3692841796875,0.10189210224449634,-0.10014730440378189,0.0668879632148426
1775509239025217300,0.37921728515625,0.0701134006679058,-0.10692746606320142,-0.01573996891286224
1775509239035150300,0.389150390625,0.01772270369529724,-0.12847235839515925,-0.28178402929147706
1775509239045083400,0.39908349609375,-0.10999474467933178,-0.11233224771618842,-0.28187678560884666
1775509239055016200,0.40901611328125,-0.2969669305771589,-0.08887626106590032,-0.1504250095441006
1775509239064949200,0.41894921875,-0.3357207318633795,0.00039922845065593716,-0.13205615343237295
1775509239074882300,0.42888232421875,-0.259894214245677,0.07442132699489593,-0.05073756860387511
1775509239084815400,0.4388154296875,-0.14702128378152846,0.12280045023858546,0.05592680781004019
1775509239094748200,0.448748046875,-0.0585194089859724,0.1522372648641467,0.10218502990962006
1775509239104681200,0.45868115234375,-0.0431435606777668,0.17129180168509484,0.1344323993107304
1775509239114614300,0.4686142578125,-0.11870704344511031,0.16471943755745888,0.15815430688820778
1775509239124547300,0.47854736328125,-0.05341419480144977,0.2414259528800845,0.287526354069449
1775509239134480100,0.488480224609375,0.02384381692409515,0.30036095692962406,0.4125039656840265
1775509239144413400,0.498413330078125,-0.04982406135499477,0.25700404576212166,0.40138833210356534
1775509239154346500,0.508346435546875,-0.03313654592633247,0.251745979103446,0.4297785968182608
1775509239164279600,0.518279541015625,0.047232291296124454,0.2340802662923932,0.43373548121787603
1775509239174212400,0.52821240234375,0.05476327132284641,0.14897037202268837,0.34972331905700266
1775509239184145400,0.5381455078125,0.05798983215391636,0.09898118323385714,0.21793146085031329
1775509239194078500,0.548078369140625,0.08319383151531219,0.10271394002139568,0.12855568929705768
1775509239204011500,0.558011474609375,0.058141807845234865,0.07873948245495557,0.09584287607497535
1775509239213944300,0.5679443359375,0.036030513802170754,0.08106646409779787,0.1362071264988277
1775509239223877400,0.57787744140625,0.04521569077670574,0.12425035678595303,0.16307523228069767
1775509239233810400,0.587810546875,0.04650222345590591,0.19383739549219609,0.167840364323277
1775509239243743500,0.597743408203125,0.09297755890488624,0.20615297944694758,0.2471951108660549
1775509239253676300,0.60767626953125,0.150440736836195,0.18424539128243922,0.22227003804389386
1775509239263609300,0.617609375,0.09599953707456588,0.06430325308442116,0.06475054019419477
1775509239273542400,0.62754248046875,-0.062302434656023975,-0.08595745100975036,-0.10179918153034523
1775509239283475500,0.637475341796875,0.08493278413712978,-0.1647068703368306,-0.8486341600187123
1775509239293408500,0.647408447265625,0.47576516236960886,-0.4703688562840223,-1.530784941547364
1775509239303341300,0.65734130859375,0.23896716155111788,-0.748273943516612,-0.49140890436638146
1775509239313274400,0.6672744140625,0.22897300628125666,-0.6217486275359988,-0.6448416991580277
1775509239323207400,0.67720751953125,0.17306114944517612,-0.42506987113803624,-0.5532550100896507
1775509239333140500,0.687140380859375,-0.12787468476295472,-0.2651166250690818,-0.3057876946860924
1775509239343073300,0.6970732421875,-0.36046938867270945,-0.10569061774462461,-0.296918086466752
1775509239353006300,0.70700634765625,-0.42522389265596866,0.09122487001866102,-0.14991716961981727
1775509239362939400,0.716939453125,-0.4275444445580244,0.3176642661690712,0.15544185132542623
1775509239372872400,0.72687255859375,-0.4641337612867355,0.4218842268392443,0.33417620583511887
1775509239382805200,0.73680517578125,-0.30241467458903787,0.45050037273168564,0.33101200618315485
1775509239392738300,0.74673828125,-0.18020049980580805,0.30557547670751806,0.27002777798622846
1775509239402671400,0.75667138671875,-0.10171440759003161,0.11926467732787131,0.14409998950734734
1775509239412604400,0.7666044921875,0.044563364347815514,0.005330255112051963,0.04143365148734301
1775509239422537200,0.776537109375,0.07417115162611007,-0.12049772625416516,-0.10383830440882592
1775509239432470300,0.78647021484375,0.047483635708689687,-0.18161971895396709,-0.174293175458163
1775509239442403300,0.7964033203125,-0.14472820440828799,-0.1947875358238816,-0.29051472223047164
1775509239452336400,0.80633642578125,-0.22692717966735362,-0.1437082137107849,-0.4297690252723172
1775509239462268400,0.816268310546875,-0.14738427187502384,-0.08783698114603758,-0.38566904065255075
1775509239472201500,0.826201416015625,0.10352467188239096,-0.06169511641263961,-0.2739769540034234
1775509239482134300,0.83613427734375,0.21469898173511026,-0.12044131989181041,-0.2269210421875119
1775509239492067300,0.8460673828125,0.2998912935912609,-0.26162790617048737,-0.23223916847035286
1775509239502000400,0.85600048828125,0.31625030771791934,-0.24560586891323327,-0.09721808255147188
1775509239511933400,0.865933349609375,0.4470499400168657,-0.16873276485204697,0.068983300659433
1775509239521866200,0.8758662109375,0.44082945806682106,-0.24235212781429288,0.22897709793448448
1775509239531799300,0.88579931640625,1.5802350550234316,-0.4032318410784006,0.19414967631176114
1775509239541732400,0.895732421875,0.8043997353643179,-0.40172465138584373,0.060694561067968604
1775509239551665400,0.90566552734375,0.4267687840104103,-0.11020721838623285,-0.2877358686342835
1775509239561598200,0.91559814453125,-0.28209552465975285,0.2518216746881604,-0.22628932015523312
1775509239571531300,0.92553125,-0.5648533126205205,-0.019783727878332137,0.08363368423730135
1775509239581464300,0.93546435546875,-0.6187368784993886,-0.025100246725976466,-0.05281842086538672
1775509239591397400,0.9453974609375,-0.566801524078846,0.1653515979811549,-0.05631207166742533
1775509239601330200,0.955330078125,-0.6637304509580135,0.1778913460806012,0.08272530068811029
1775509239611263200,0.96526318359375,-0.6125409464687108,0.17454466600120067,0.18765560158472508
1775509239621196300,0.9751962890625,-0.46264556855559347,0.2426113632723689,0.2850231390768662
1775509239631129300,0.98512939453125,-0.2512222474902868,0.27510172024965285,0.39937330248672515
1775509239641062100,0.995062255859375,-0.05399988573491573,0.26363690790534017,0.41605895475186405
1775509239650995200,1.0049951171875,0.20667466523349284,0.17728753496855496,0.36188016878608614
1775509239660928300,1.01492822265625,0.3694891459524631,0.061687225367128846,0.29354506636969746
1775509239670861300,1.024861328125,0.4486433466881513,-0.038981472562253476,0.16806754240896551
1775509239680794000,1.034794189453125,0.5082189867287874,-0.1500830094397068,0.057740533567965026
1775509239690727400,1.0447275390625,0.6473515630871057,-0.2119792013823986,-0.00660878714788705
1775509239700660500,1.054660400390625,0.7151210309773683,-0.19543869320899246,-0.0038744668131694194
1775509239710593500,1.064593505859375,0.5392717121183872,-0.2235901441991329,0.048701158272288735
1775509239720526300,1.0745263671875,0.09300795404314995,-0.2852200864210725,-0.0178378910401836
1775509239730459400,1.08445947265625,-0.7058598661571741,-0.4254924804642796,-0.02932476908583194
1775509239740392400,1.094392333984375,-1.565029302585125,-0.9072940003886818,0.08078717223238199
1775509239750325500,1.104325439453125,-1.2316694546341895,-0.5694263196244835,-0.6917473157830536
1775509239760258600,1.114258544921875,-0.9707418056875466,-0.04693447739332914,-1.0529268985517322
1775509239770191400,1.12419140625,-0.7622755808621644,-0.24554215602725743,-0.09063242055084555
1775509239780124400,1.13412451171875,-0.29368425564467904,-0.32249417054355145,0.22404658272974193
1775509239790057500,1.144057373046875,-0.03371931425035,-0.2639925894752145,-0.0657388023128733
1775509239799990500,1.153990478515625,0.39787469795942304,-0.272494168099761,-0.32211529076118023
1775509239809923300,1.16392333984375,0.6526227814882993,-0.26600685190707446,-0.29035613413527606
1775509239819856400,1.1738564453125,0.7601186950892209,-0.21025836893916128,-0.16662348108049482
1775509239829789400,1.18378955078125,0.059791913139820095,0.12289835765510797,0.2312660125892609
1775509239839722500,1.193722412109375,-0.2980705079048872,0.4445326964989304,0.25929588302634654
1775509239849655300,1.2036552734375,0.012394202148914336,0.49763212626278397,0.1977327954955399
1775509239859588400,1.21358837890625,0.09583587094545364,0.35647213573008774,0.3664626012055203
1775509239869521400,1.223521484375,0.12677110743522643,0.358295551764965,0.44931108988188206
1775509239879454500,1.233454345703125,0.1608534097790718,0.4941270407512784,0.4642623926350847
1775509239889387300,1.24338720703125,0.10884557464420795,0.5462810063585639,0.4395122379884124
1775509239899320300,1.2533203125,0.0728846189469099,0.5201823962450027,0.42057727242652326
1775509239909253400,1.26325341796875,0.10833411799073218,0.49330461845248935,0.3398512923294678
1775509239919186400,1.2731865234375,0.2098041954308748,0.43129298343658445,0.23898495293613523
1775509239929120000,1.2831201171875,0.3511000873029232,0.38468642282336946,0.24041301297787576
1775509239939053000,1.293052978515625,0.4735702826738357,0.3459749993741512,0.2846830204023048
1775509239948986000,1.302986083984375,0.5090028305828571,0.3190659496605396,0.2839355995684862
1775509239958919200,1.312919189453125,0.47917760116159913,0.2873082908719778,0.28281203889865425
1775509239968852000,1.32285205078125,0.3613426643759012,0.21012188307791946,0.29692860786076636
1775509239978785000,1.332784912109375,0.24286826064288614,0.10143559064865111,0.222524816522561
1775509239988718000,1.342718017578125,0.12885785058140753,0.042944823235273356,0.1723576042857021
1775509239998651100,1.352651123046875,0.07774959463477134,-0.018491642241179943,0.09444927542526274
1775509240008584000,1.362583984375,0.12741115890443325,-0.086567984123528,-0.002513371060416102
1775509240018517000,1.37251708984375,0.22870003455877302,-0.18450199639201162,-1.5611360945388675
1775509240028450000,1.382449951171875,-0.756686967074871,-0.5079200037822127,-0.9020438978407531
1775509240038383000,1.392383056640625,-1.2362976989567278,-0.33365240115672345,0.8889803450629115
1775509240048316000,1.40231591796875,-0.5733025765359402,0.09374386710226536,-0.08635658812886103
1775509240058249000,1.4122490234375,-0.5468658205091953,-0.10207242724746465,-0.412122565151006
1775509240068182000,1.42218212890625,-0.5790133553981781,-0.2929121022284031,-0.25675756018776447
1775509240078115000,1.432114990234375,-0.4781418283730745,-0.19168898528665304,-0.22326348779434338
1775509240088047900,1.4420478515625,-0.1951771196633577,-0.06618278322070836,-0.0775430574783124
1775509240097981000,1.45198095703125,0.019602526092529295,-0.10051292284578084,0.004369483788497746
1775509240107914000,1.4619140625,0.0861906752437353,-0.11615239052623509,-0.030121271492075174
1775509240117847000,1.471846923828125,0.14841361492276192,0.0010477554872632027,-0.02379784062420949
1775509240127779800,1.48177978515625,0.0872059897661209,0.08464753745496273,-0.08121973669705912
1775509240137713000,1.491712890625,-0.09855740486383438,0.09470862048119306,-0.18615087784389034
1775509240147646000,1.50164599609375,-0.13421616274416445,0.05719254429638385,-0.1825422954252921
1775509240157578000,1.511577880859375,-0.05308160184621811,0.05639730226546526,-0.12912201794292777
1775509240167511000,1.521510986328125,0.06388590445518494,0.09413695807307958,-0.10670034277644008
1775509240177444000,1.531444091796875,0.09360007471740245,0.09969429993927478,-0.060422046003211285
1775509240187377000,1.541376953125,-0.013397826233506202,0.08459230013638734,0.02377522693360224
1775509240197310000,1.55131005859375,0.010679799446463585,0.08341711887717247,0.0933809886066243
1775509240207243000,1.561242919921875,0.0911620339155197,0.12188099730610846,0.08349126182561739
1775509240217176000,1.571176025390625,0.13699731789529324,0.09309300197809935,0.12385198685182258
1775509240227108900,1.58110888671875,0.140257780995965,0.0728536392867565,0.14298653010642154
1775509240237042000,1.5910419921875,0.11545943982601165,0.06019289515614509,0.07502053499706089
1775509240246975000,1.60097509765625,0.10527473042011261,0.06160510004162788,0.04565057506263256
1775509240256908000,1.610907958984375,0.09919394920170306,0.04622662138491869,0.028375432471744715
1775509240266840800,1.6208408203125,0.048096214649081225,0.027829671689867972,0.05347398043097928
1775509240276774000,1.63077392578125,0.13757248743474482,-0.01770224542915821,0.029821649224683642
1775509240286707000,1.64070703125,0.3087240038663149,-0.06272329041659831,0.05929305110643617
1775509240296640000,1.650639892578125,0.32891222089231015,-0.07707593315690756,0.060875634989608074
1775509240306572800,1.66057275390625,0.3476929092079401,-0.04285422234237194,0.09192299921750091
1775509240316505900,1.670505859375,0.5639835440486669,-0.05049012404829263,-0.027516084829205645
1775509240326439000,1.68043896484375,0.32679742069542406,-0.05840688852220773,-0.1349333437033463
1775509240336372000,1.6903720703125,0.10894143623411655,0.04343757518827915,0.0677058372026775
1775509240346304800,1.7003046875,-0.019707155510783194,0.07506283976882695,0.2310862721081823
1775509240356237800,1.71023779296875,-0.10797229894101619,0.014780512763559817,0.06014595987503416
1775509240366171000,1.7201708984375,-0.060358314850926395,-0.0035638299614191055,-0.002179335066769272
1775509240376104000,1.73010400390625,0.08892565316557884,-0.019331892457604406,0.005851191979926079
1775509240386037000,1.740037109375,0.20105214917659758,-0.04792494973540306,-0.024336367947701363
1775509240395969800,1.7499697265625,0.15157295573651788,-0.06031389118731022,-0.06459900289429352
1775509240405902800,1.75990283203125,-0.018004443246126173,-0.06479980442970991,-0.04261310706287622
1775509240415836200,1.769836181640625,-0.14413257660269738,-0.04648965623527765,0.03532008224418386
1775509240425769200,1.779769287109375,-0.2080927153378725,-0.0481932452827692,0.0647113954938948
1775509240435702000,1.789701904296875,-0.21942191860377788,-0.02486877605766058,0.00007668196540325879
1775509240445635000,1.799635009765625,-0.13828969579339026,0.0015861001476645468,-0.017122801573388278
1775509240455568100,1.809568115234375,-0.10085925206542014,-0.00017009586989879608,-0.03321431473712436
1775509240465501200,1.819501220703125,-0.11417290714681148,-0.004405541482567787,-0.06682668888112529
1775509240475434000,1.82943408203125,-0.10608955393433571,-0.026532909877598283,-0.023497825631173325
1775509240485367000,1.839366943359375,-0.10837620356678962,-0.01630932976603508,0.04583656262140721
1775509240495300000,1.849300048828125,-0.060713119637966155,0.018396072912216184,0.07790672142524271
1775509240505233200,1.859233154296875,0.025274141988158225,-0.025950726075470446,0.05882610031496733
1775509240515166000,1.869166015625,0.08562193544507027,-0.0411763522580266,0.05194776637754403
1775509240525099000,1.87909912109375,0.11864508412480354,-0.0034466333225369452,0.0389544840906281
1775509240535032000,1.889031982421875,0.08449731532931327,0.025699673923850058,-0.001472374107502401
1775509240544965000,1.898965087890625,0.042353287082910536,0.028327392078936097,0.00562791375122033
1775509240554898000,1.90889794921875,0.014022680133581161,0.01946633249223232,0.023065818288922308
1775509240564831000,1.9188310546875,0.009313771790266037,0.05486410134881735,0.02995165054621175
1775509240574764000,1.928763916015625,0.08277648288607597,0.10129998157024384,-0.019369539320562033
1775509240584697000,1.938697021484375,0.11845452998876571,0.05871960773319006,-0.02232616976960562
1775509240594630000,1.9486298828125,0.12326397609710693,0.03511515252292156,0.0399865031526424
1775509240604563000,1.95856298828125,0.1149690259605646,0.04178805441558361,0.058949726694636044
1775509240614496000,1.96849609375,0.0901426277399063,0.014717968921363353,0.06425737724923529
1775509240624429000,1.978428955078125,0.07550035440325736,-0.034898294901847836,-0.008587019285140558
1775509240634361900,1.98836181640625,0.05005202489197254,-0.049072366204857824,-0.04117197747700847
1775509240644295000,1.998294921875,0.04651625198125839,-0.030800211933255193,-0.022612622028170153
1775509240654228000,2.00822802734375,0.08391863865852356,-0.06019289515614509,-0.04691700566872023
1775509240664161000,2.0181611328125,0.05655658448040485,-0.06533405743688345,-0.08692462467462755
1775509240674094000,2.028093994140625,-0.06911795988976956,-0.030143501590192315,-0.11317229700321331
1775509240684027000,2.03802685546875,-0.1512859554886818,0.00784399149864912,-0.03331093437885865
1775509240693960000,2.0479599609375,-0.26441081488728524,0.03407265773266554,0.030484350917115807
1775509240703893000,2.05789306640625,-0.3186655521661043,0.039084932936728,0.04859378890767693
1775509240713826000,2.067825927734375,-0.131316934171319,0.009244505946338176,0.10585340709090232
1775509240723758800,2.0777587890625,-0.022862404671311377,-0.0001607435196638107,0.10533427858762442
1775509240733692000,2.08769189453125,0.05635667799413204,-0.04422989460974931,0.039279651791229844
1775509240743625000,2.097625,0.048183308410644526,-0.07476034969091415,0.026362613078299908
1775509240753558000,2.10755810546875,0.015731822139024732,-0.09087386462390422,-0.030498945698048917
1775509240763490800,2.11749072265625,-0.05317863247990608,-0.09910890126675367,-0.02903656326159835
1775509240773423900,2.127423828125,-0.05293897850513458,-0.07634791114330292,0.028653847554326057
1775509240783357000,2.13735693359375,-0.04594692766070366,0.006621463966369629,0.05610254796943627
1775509240793290000,2.1472900390625,-0.1291951197117567,-0.0902262143701315,0.047891549789300186
1775509240803222800,2.157222900390625,-0.14760697471499443,-0.062036184935271736,0.0870688828503713
1775509240813155800,2.16715576171875,-0.06283902575075626,0.018961305579543113,0.049454433458158746
1775509240823089000,2.1770888671875,-0.00502455016374588,0.007697861026227474,-0.021420005576964468
1775509240833022000,2.18702197265625,0.10471417392790316,-0.009418693469464778,-0.024246086715208365
1775509240842954800,2.196954833984375,0.2062140619844198,-0.019917875652015207,-0.027449138806527478
1775509240852887800,2.2068876953125,0.2500812607616186,-0.03456833229511976,-0.030348495243536305
1775509240862820900,2.21682080078125,0.2721557299256325,-0.048668461579084395,-0.03822856270256452
1775509240872754200,2.226754150390625,0.19972528448700905,-0.043264848969876764,-0.08897267977823503
1775509240882687000,2.23668701171875,0.1672533399492502,-0.03693243107795715,-0.02107867219285108
1775509240892620000,2.2466201171875,0.1632020187318325,0.010032441453635693,-0.013479613632289692
1775509240902553000,2.256552978515625,0.15916998673677443,0.045829731021821495,-0.00636507805250585
1775509240912486100,2.266486083984375,0.12354630016982554,0.01928250035792589,-0.022948356788558884
1775509240922418200,2.276418212890625,0.03415887471139431,0.042673897339403626,0.005723035555612295
1775509240932351200,2.286351318359375,-0.01351297704577446,0.08112462402582168,0.08113730997745879
1775509240942284000,2.296283935546875,-0.032821488627791405,0.10195026217252015,0.10839320036736316
1775509240952217000,2.306217041015625,-0.04072013292312622,0.09227174872308969,0.13074310720558277
1775509240962150100,2.316150146484375,-0.018410101437568663,0.06368132179379463,0.12579259952558203
1775509240972083200,2.326083251953125,0.014835165560245512,0.04457125539332628,0.09356474767569452
1775509240982016000,2.33601611328125,-0.030806641674041745,0.00040741175711154934,0.03501192961046472
1775509240991949000,2.345948974609375,-0.15366028340458868,-0.026643384514749048,-0.05427205373980105
1775509241001882000,2.355882080078125,-0.20103169091045855,0.011645721869170665,0.01903778661554679
1775509241011815200,2.365815185546875,-0.31772213383615017,0.024537352146208283,0.030262543126288798
1775509241021748200,2.375748291015625,-0.4930979899644851,0.02460691025108099,-0.06909927345560864
1775509241031681300,2.385681396484375,-0.4584089538991451,0.0018336451679468154,0.023631379749812186
1775509241041614300,2.3956142578125,-0.31664485999345776,0.032030045989155764,0.16871579545093698
1775509241051547400,2.40554736328125,-0.06076981826126575,0.0828726367369294,0.22304414595523847
1775509241061480200,2.415480224609375,0.09242693928480147,0.18259616277068852,0.3474174532674253
1775509241071413200,2.425413330078125,0.13489128552675247,0.15914456003457306,0.23099472136721014
1775509241081346300,2.43534619140625,0.2744716056525707,0.1135249646320939,0.19269474652940408
1775509241091279400,2.445279296875,0.46825230252146716,0.13936229346096515,0.1876793477864936
1775509241101212200,2.455212158203125,0.45038054574429986,0.11547580643892287,0.1232563407799229
1775509241111145200,2.465145263671875,0.17080372590720652,0.04524871626347303,0.10857921532560139
1775509241121078300,2.475078369140625,-0.17783669328391552,0.0941971638277173,0.02516008715443313
1775509241131011300,2.48501123046875,-0.4481026639401912,0.17282412581890821,0.05743672831580043
1775509241140944100,2.494944091796875,-0.6119535019695759,0.19547347226142883,0.06075710491016507
1775509241150877200,2.504877197265625,-0.580235006147623,0.14744623119533062,0.04950162446759641
1775509241160810200,2.514810302734375,-0.35260055499374865,0.12774229055494069,0.07354238873589783
1775509241170743300,2.524743408203125,-0.03249006471633911,0.1583043098181486,0.173059030553326
1775509241180676000,2.534676025390625,0.20367080724239348,0.14100363092720508,0.19151048691459
1775509241190609200,2.544609130859375,0.3426110758990049,0.050075698028504846,0.06982081092949956
1775509241200542200,2.554542236328125,0.3757674955695867,-0.07678834838718175,-0.1141736743317917
1775509241210475300,2.564475341796875,0.2669575767606497,-0.23989596683382985,-0.37049463320057835
1775509241220408300,2.574408203125,0.14282967731058596,-0.3375748352974653,-0.5343757202377543
1775509241230341000,2.584341064453125,0.16019231552183627,-0.41335663699060676,-0.6030159796131774
1775509241240274200,2.594274169921875,0.17950374971330166,-0.4408233205869794,-0.6183289552856236
1775509241250207200,2.604207275390625,0.24774434224665162,-0.4182438245102763,-0.5707577508913353
1775509241260140300,2.614140380859375,0.3337655061423778,-0.3074395170137286,-0.34176750121433286
1775509241270073000,2.624072998046875,0.49200727211832995,-0.11565642370283603,-0.04146298717968166
1775509241280006100,2.634006103515625,0.4653817155212164,0.00504500842988491,-0.04468129163905978
1775509241289939200,2.643939208984375,0.47799102172553537,0.1118777819469571,-0.04423161164280027
1775509241299872300,2.653872314453125,0.8629670751452445,0.32854514114558697,0.09428864150345324
1775509241309805000,2.66380517578125,0.0744265876919031,0.21450842759907243,0.17875556169450282
1775509241319738000,2.673738037109375,-0.19156418986320495,0.16663666935563087,0.15310023836903272
1775509241329671200,2.683671142578125,-0.22128069821298121,0.11298398962318897,0.1999722815180197
1775509241339604200,2.693604248046875,-0.2994423807799816,0.08272095330655574,0.1308523853994906
1775509241349537000,2.703537109375,-0.3714619073301553,0.15186989285647867,0.08421860798578709
1775509241359470000,2.713469970703125,-0.4490378989636898,0.09115501965284346,-0.02058379221484065
1775509241369403100,2.723403076171875,-0.46541620231270786,0.017109832493960857,-0.020826514929533003
1775509241379336200,2.733336181640625,-0.3892261120796203,-0.03742196816056967,-0.04675747685860842
1775509241389269000,2.74326904296875,-0.2425005963742733,-0.10487345614284277,-0.08010521785020827
1775509241399202000,2.7532021484375,-0.013653846821188927,-0.10598521677702664,-0.04345624335613101
1775509241409135000,2.763135009765625,0.13882219523489475,-0.18527385754734277,-0.044134800204820926
1775509241419068200,2.773068115234375,0.11724281611144542,-0.20535510706752538,-0.0027745427472516894
1775509241429001200,2.783001220703125,0.058334115546941755,-0.0628217823550105,0.1575928005479276
1775509241438934000,2.79293408203125,-0.001143324816226959,0.04233253655582666,0.1799429448481649
1775509241448867000,2.8028671875,-0.10491466493606567,0.08214169211387634,0.19276457862891255
1775509241458800000,2.812800048828125,-0.15851649126410483,0.0647699938133359,0.15838409705609083
1775509241468733200,2.822733154296875,-0.19124153378009795,0.021836861015856263,0.07904737936034799
1775509241478666200,2.832666259765625,-0.2052554460853338,0.011399638153612612,-0.0013178046002984046
1775509241488599300,2.842599365234375,-0.2122147637039423,0.07010901675373316,-0.051812458693236106
1775509241498532400,2.852532470703125,-0.1872434040546417,0.04563596201539039,-0.052948184724897145
1775509241508464000,2.862464111328125,-0.12458441104590892,0.02257686572819948,-0.01804809972476214
1775509241518398200,2.872398193359375,-0.05721767873764038,-0.019019173246622084,-0.05039837237792089
1775509241528330000,2.882330078125,0.0063648588567972175,-0.07172668108344078,-0.11925273116175085
1775509241538264300,2.892264404296875,0.0728372726738453,-0.13182751404196022,-0.17090229091085493
1775509241548196000,2.902196044921875,0.11803133614063262,-0.1669724771812558,-0.19696484333034603
1775509241558129200,2.912129150390625,0.12548632832169532,-0.21123978119194506,-0.18810181098226456
1775509241568062200,2.922062255859375,0.18073825994431972,-0.13955109403133392,-0.059972987061459565
1775509241577995300,2.931995361328125,0.17625789965987204,-0.047042906203866,0.006639127487223595
1775509241587928300,2.94192822265625,0.1421007785141468,0.008915712383389472,0.056064764109160746
1775509241597861400,2.951861328125,0.09689093295633792,0.11107611017525196,0.16783409897927193
1775509241607794200,2.961794189453125,0.09911153161525725,0.11509499042779206,0.18384503032062202
1775509241617727200,2.971727294921875,0.14650047477781772,0.054740767230093475,0.1614961281294003
1775509241627660300,2.981660400390625,0.23546704447567463,0.04379997875988483,0.15143729185918345
1775509241637593300,2.99159326171875,0.2868763291954994,0.03286766585707664,0.12234445009939372
1775509241647526100,3.001526123046875,0.2795820805341005,0.030813655936717987,0.10991283854953944
1775509241657459200,3.011459228515625,0.26018472162485123,0.05037526549696922,0.10989627100722864
1775509241667392300,3.021392333984375,0.21085516578853128,0.0684188717097044,0.06385196565296501
1775509241677325300,3.0313251953125,0.19765432343184947,0.04891717564314604,0.004966755561903118
1775509241687258400,3.04125830078125,0.18291151233017444,0.038245267242193216,-0.03842150059193372
1775509241697191200,3.051191162109375,0.13724457065463067,0.03324088308364153,-0.07120612780805677
1775509241707124200,3.061124267578125,0.05556289726793766,0.03221066325306892,-0.01953680391255766
1775509241717057300,3.071057373046875,-0.09503215334713458,0.07624971146583556,0.04717530041188001
1775509241726990300,3.080990234375,-0.196525027140975,0.08269815695285797,0.10758576557515188
1775509241736923100,3.090923095703125,-0.21557459552586078,0.06461392646878958,0.07187403539856896
1775509241746856200,3.100856201171875,-0.19847966834008693,0.06025485447645187,0.02357132012564689
1775509241756789200,3.110789306640625,-0.15378420204520224,0.0447772993594408,0.052197384623903775
1775509241766722300,3.120722412109375,-0.10872983931005001,0.01465367151349783,0.06954741908190772
1775509241776655000,3.130655029296875,-0.07644552629888057,0.001428279237449169,0.04594502796456217
1775509241786588200,3.140588134765625,-0.058732759475708,-0.021093056911230087,0.039749351662211115
1775509241796521200,3.150521240234375,-0.022826748836040495,-0.03348316740691662,0.05053167990138754
1775509241806454300,3.160454345703125,-0.0034229601860046384,-0.025007307745516297,0.025245135089382528
1775509241816387000,3.170386962890625,-0.029694881039857863,-0.05329027616083622,-0.0180052834963426
1775509241826320100,3.180320068359375,-0.024354689055681226,-0.038408056588470935,-0.04786536503527313
1775509241836253200,3.190253173828125,0.038707039535045625,-0.03628887247741222,-0.04061362207503989
1775509241846186200,3.200186279296875,0.08634031284749508,-0.034091070172190666,-0.052383481780532745
1775509241856119000,3.210119140625,0.10510405002832413,-0.031717326778173446,-0.020607757612317798
1775509241866052000,3.220052001953125,0.10723755492568016,-0.018668460112810134,0.028379140532482413
1775509241875985200,3.229985107421875,0.08979191460609436,-0.019461656317114828,0.009731905870791525
1775509241885918200,3.239918212890625,0.034463410615921015,-0.0025888474494218825,-0.03469583113230765
1775509241895851000,3.24985107421875,0.03963876742720604,-0.00951923123449087,-0.07357711298940703
1775509241905784000,3.2597841796875,0.04648936397433281,-0.026280980943143368,-0.09437633805321528
1775509241915717000,3.269717041015625,0.023262802165746686,-0.01657382592111826,-0.0342141850952059
1775509241925650700,3.279650634765625,0.054961424243450165,0.011058277370035648,0.001861117696762085
1775509241935583500,3.28958349609375,0.05495148737132549,0.04521715208142996,-0.007449420956801622
1775509241945516500,3.2995166015625,0.017347440642118454,0.04679769927114248,-0.022632249177247283
1775509241955449600,3.30944970703125,-0.00239595522582531,0.030056992350518702,-0.06014522008951753
1775509241965382700,3.319382568359375,-0.006123451316356659,-0.0015454758763313293,-0.080996504134126
1775509241975315500,3.3293154296875,0.028581951361894606,0.008730711205303669,-0.0684421612537466
1775509241985248800,3.339248779296875,0.08759469682276248,0.032951544748246665,-0.023286402237042782
1775509241995181800,3.349181884765625,0.12075053197145462,0.047555531901121134,-0.004885762747563422
1775509242005115000,3.359114990234375,0.109776133492589,0.021308745488524437,0.010030231230240315
1775509242015047700,3.369047607421875,0.14442483754754065,-0.019409633868932723,0.020841712498664854
1775509242024980700,3.378980712890625,0.21886077758967876,-0.0433656789958477,0.007841397682763636
1775509242034913800,3.388913818359375,0.2727934433072805,-0.028010873475670814,0.0029900121288374062
1775509242044846800,3.398846923828125,0.2086018339037895,-0.020669570802152155,0.04254301923504099
1775509242054779600,3.408779541015625,0.12905015828311442,0.028379414527118205,0.0919646920679137
1775509242064712700,3.418712646484375,-0.016116437542438505,0.06957359470278024,0.1177307092262432
1775509242074645800,3.428645751953125,-0.2072393133789301,0.07724895163625478,0.1199494629879482
1775509242084578800,3.438578857421875,-0.35555998932123184,0.04195259732753038,0.09344190674731508
1775509242094511900,3.448511962890625,-0.39500469548106193,0.021017653587460515,0.06497242105025798
1775509242104444700,3.458444580078125,-0.3115963444322348,0.010005261185765266,0.002240472403168678
1775509242114377700,3.468377685546875,-0.17640110752284527,-0.01161415768712759,-0.014184410033933817
1775509242124310800,3.478310791015625,-0.03109305739998817,-0.03772241241186857,-0.043553109593037515
1775509242134243800,3.488243896484375,-0.030226795959472655,-0.06393705012053251,-0.09574055734481662
1775509242144176600,3.4981767578125,-0.06353285323381423,-0.07098872219771146,-0.03691348891546949
1775509242154109700,3.508109619140625,-0.07339081490337848,-0.0634887218311429,0.041371582569181914
1775509242164042800,3.518042724609375,-0.060794952702522276,-0.04549801484942436,0.05274111784547567
1775509242173975800,3.527975830078125,-0.03564239126741886,0.0004521276816725731,0.029557609727326777
1775509242183908600,3.53790869140625,0.0010386953979730606,-0.0014274024546146393,0.03184758382802829
1775509242193841700,3.547841552734375,0.04872808281183243,0.023931202946603298,0.062348995477799325
1775509242203774700,3.557774658203125,0.07084346850812434,0.012311200040578842,0.05108270138027146
1775509242213707800,3.567707763671875,0.06400397787690162,-0.020709026029706,0.07189067600611597
1775509242223640600,3.577640625,0.025129180559515952,-0.048052375507354736,0.030694577868003396
1775509242233573600,3.58757373046875,-0.008854922106862067,0.021771979086101054,0.04643261055210605
1775509242243506700,3.597506591796875,-0.004374561822414398,0.05744944166690111,0.10362330995127558
1775509242253439700,3.607439697265625,0.02042377934753895,0.047097559000551695,0.08348119708932936
1775509242263372500,3.61737255859375,0.047102527436614035,0.07283288875967264,0.049132645024731754
1775509242273305600,3.6273056640625,0.08564297823309898,0.06293342603594064,0.011607819277886301
1775509242283238700,3.63723876953125,0.13703648086190223,0.009296528394520283,-0.0389569774418138
1775509242293171700,3.647171630859375,0.10007949986457824,-0.029884266132116317,-0.10678500711889936
1775509242303104500,3.6571044921875,0.02405833645761013,-0.027051380793750284,-0.14507676211763174
1775509242313037600,3.66703759765625,-0.03197217832207679,-0.0025467618733644483,-0.08725061435913667
1775509242322970600,3.676970703125,-0.05249474186897277,0.041613866892457003,0.002289042518939823
1775509242332903700,3.686903564453125,-0.06672551179528236,0.0988943817332387,0.04614789359290152
1775509242342836700,3.696836669921875,-0.0554085834890604,0.07746347116976976,0.09499940185500308
1775509242352769500,3.70676953125,-0.07832593321800231,0.05798486371785402,0.12394983946941793
1775509242362702600,3.71670263671875,-0.12786883954405784,0.06733487586528063,0.14137514938702805
1775509242372635600,3.7266357421875,-0.21444646827876568,0.09989888260066508,0.11214892703853548
1775509242382568700,3.736568603515625,-0.21867840676009653,0.07284428693652152,0.1074265564254485
1775509242392501500,3.74650146484375,-0.21184476134777067,0.03685615097135305,0.06883326119687408
1775509242402434600,3.7564345703125,-0.15392857895195483,-0.008804360963404178,0.02646265765298158
1775509242412367600,3.76636767578125,-0.05454758274555206,-0.06282675079107285,0.013697631163988262
1775509242422300700,3.77630078125,0.019886603730916975,-0.07919687083363533,-0.02803767015105113
1775509242432233500,3.7862333984375,0.11749065339267253,-0.05780220062732696,-0.06039429947976022
1775509242442166800,3.796166748046875,0.1534159532546997,-0.03202536981403827,-0.03748909684633836
1775509242452099800,3.806099853515625,0.06093289986848831,-0.035547698721289635,-0.04057037658835761
1775509242462033000,3.816032958984375,0.02646422855556011,-0.05543605601787567,-0.07385314431865699
1775509242471965700,3.825965576171875,0.11375146686434745,-0.07224339843392372,-0.09690858734403736
1775509242481898800,3.835898681640625,0.1200800853639841,-0.0413046548128128,-0.03847471948335878
1775509242491831800,3.845831787109375,0.11472118867933749,0.004042261128127575,-0.02558139043957926
1775509242501764900,3.855764892578125,0.1663485000640154,0.018180092073976993,-0.008618574334029109
1775509242511697700,3.86569775390625,0.23306875116229056,0.02336947741061449,0.032614768808241934
1775509242521630700,3.875630615234375,0.19288462481200694,-0.0017459668844938276,0.08142754336199723
1775509242531562800,3.885562744140625,0.10220599049925803,0.012118892338871956,0.06638489993037655
1775509242541495800,3.895495849609375,0.08923603428900241,-0.009176701407134532,0.03377472509886138
1775509242551428900,3.905428955078125,0.12489829930067062,-0.06880933233201503,-0.01732250713026151
1775509242561361700,3.915361572265625,0.19330606509447096,-0.06359685838073492,-0.028954383137170223
1775509242571294700,3.925294677734375,0.2821849565088749,-0.0529141363248229,-0.0034775490506086496
1775509242581227800,3.935227783203125,0.31299861244559285,-0.052641164602339266,-0.0007955251587089151
1775509242591160800,3.945160888671875,0.2824105819582939,-0.004068856874108314,0.027927597372699526
1775509242601094000,3.955093994140625,0.21834756737053393,0.014894202271103859,0.083017881293362
1775509242611026700,3.965026611328125,0.11698971813321113,0.038059097020328045,0.1048734652759973
1775509242620959700,3.974959716796875,0.06795417680740357,0.050071021853387354,0.09876278210966848
1775509242630892800,3.984892822265625,0.033842648369073865,0.051828971436619756,0.0888634655164089
1775509242640825900,3.994825927734375,-0.04822188685536384,0.05327741667926311,0.07466809569704345
1775509242650758700,4.004758544921875,-0.03994797950685024,0.07201397359222174,0.024479100886639207
1775509242660691700,4.014691650390625,-0.03483808914721012,0.0744900083169341,-0.013092303948290645
1775509242670624800,4.024624755859375,-0.1155401038467884,0.06707505588531494,0.013428815026814117
1775509242680557800,4.034557861328125,-0.10175357055664062,0.049181671798229215,-0.006479671742348
1775509242690490600,4.04449072265625,-0.08656067759990692,0.003778349494934082,-0.0315828410777729
1775509242700423700,4.054423583984375,-0.059870239073038095,-0.01180588086694479,-0.03380176836941391
1775509242710356700,4.064356689453125,-0.09038461980223655,-0.01023205567896366,-0.03092342732097022
1775509242720289800,4.074289794921875,-0.1143506018012762,-0.019648703321814537,-0.026001661678263916
1775509242730222600,4.08422265625,-0.1177794072061777,-0.024189269360899924,-0.023327136106230318
1775509242740155600,4.09415576171875,-0.12310673970878123,-0.028348142606019974,-0.03131738594146445
1775509242750088700,4.104088623046875,-0.1050917750686407,-0.03801350431293249,-0.02261658581723459
1775509242760021800,4.114021728515625,-0.10514204395115374,-0.03787409584224224,-0.032394193993275984
1775509242769954600,4.12395458984375,-0.13543079923093318,-0.034730537119507784,-0.004855550272390246
1775509242779887600,4.1338876953125,-0.1717506513684988,-0.034816754098236556,0.010425459359213709
1775509242789820700,4.143820556640625,-0.15837211435735224,-0.037803660954535,-0.008507323378743603
1775509242799753700,4.153753662109375,-0.09393500576019287,-0.02275952881872654,-0.05898437788290903
1775509242809686800,4.163686767578125,-0.03321662542521953,0.005562310302257538,-0.06462168051698244
1775509242819619600,4.17361962890625,0.022505261796712875,0.0012599369332194328,-0.05088326981803402
1775509242829552600,4.183552734375,0.0896376008272171,-0.007704290767014026,-0.08427604639460332
1775509242839485700,4.193485595703125,0.13657412404716013,-0.049100715516507625,-0.0728827101176139
1775509242849418800,4.203418701171875,0.177723880559206,-0.04581950188875198,-0.04854288070434704
1775509242859351600,4.2133515625,0.14472235918939114,-0.013026947094500065,-0.018574973143078384
1775509242869284600,4.22328466796875,0.07168225741982459,0.032501170632243156,-0.05023096165545284
1775509242879217700,4.2332177734375,0.016986206114292145,0.01333732821792364,-0.0066884739211294795
1775509242889150700,4.243150634765625,-0.015521394258737563,0.028774843585491178,0.022656515968823805
1775509242899083500,4.25308349609375,-0.1489098740071058,0.0602948942258954,-0.020531313108932227
1775509242909016600,4.2630166015625,-0.27302082232236863,0.039596974112093446,-0.10831070058252662
1775509242918949600,4.27294970703125,-0.15862813494503497,-0.02224456503391266,-0.10740696580898948
1775509242928882700,4.282882568359375,0.08040390853583812,0.00042523967474699016,-0.05308760689531918
1775509242938815500,4.2928154296875,0.25478490840792656,0.031771395052969456,0.03875122117006685
1775509242948748500,4.30274853515625,0.2963929300814867,0.06220306593477726,0.053332398269511756
1775509242958681600,4.312681640625,0.25673370438814164,0.07713789247721434,0.04785834620601963
1775509242968614700,4.32261474609375,0.042755438143014905,0.02232815166413784,0.10408000421021132
1775509242978547500,4.33254736328125,-0.1679635340452194,0.024873452232778072,0.11206588839758187
1775509242988480800,4.342480712890625,-0.2617658533364534,0.014867606525123119,0.11364976005554199
1775509242998413800,4.352413818359375,-0.23684768517911434,-0.0017155717462301254,0.04883221447316464
1775509243008347000,4.362346923828125,-0.2028764419943094,-0.023267478340864182,0.010158919660805258
1775509243018279700,4.37227978515625,-0.08015022603571414,-0.06629150429219006,0.015023226345097646
1775509243028212700,4.382212646484375,0.041942952716350554,-0.09026157794445752,-0.000124866205395665
1775509243038145800,4.392145751953125,0.08596504979431628,-0.07555003876388072,0.025931688014860264
1775509243048078800,4.402078857421875,0.13662673101723194,-0.06137713650465011,0.02254477638977114
1775509243058011600,4.41201171875,0.18329554321169853,-0.058954877793788905,0.00536377607245231
1775509243067944700,4.42194482421875,0.16283260089755058,-0.04481558554321527,0.017273733801802152
1775509243077877800,4.431877685546875,0.12851415171027183,-0.057435997663438314,0.03222755502236541
1775509243087810800,4.441810791015625,0.07785890022814274,-0.016893267133831977,0.04711983019786421
1775509243097744000,4.451743896484375,0.029897710135579108,0.012111001293361186,0.0026168223017361014
1775509243107676700,4.4616767578125,0.004494973331689835,0.001367196699976921,-0.020321506283152848
1775509243117609700,4.471609619140625,-0.0008703530937433242,-0.0029258243188261986,-0.019133492941828444
1775509243127542800,4.481542724609375,0.006698620855808257,0.0035737668335437773,0.004608069184189662
1775509243137475800,4.491475830078125,0.00971358476281166,0.021442016479372977,0.02842664663575124
1775509243147408600,4.50140869140625,0.014020342046022415,0.013565291754901409,0.03419282721334602
1775509243157341700,4.511341796875,0.010544774889945983,-0.0031079028874635693,0.01723228069669567
1775509243167274800,4.521274658203125,0.05016016144156456,-0.010617547865211963,0.02882813554215245
1775509243177207800,4.531207763671875,0.009863222366571426,-0.0001537292569875717,-0.001269878371921368
1775509243187140600,4.541140625,-0.07107493917644024,0.014825228688120841,-0.03180182672385126
1775509243197073700,4.55107373046875,-0.1329728846848011,-0.004091068705916404,-0.06124759640742559
1775509243207006700,4.5610068359375,-0.1075578729212284,-0.04978139125704765,-0.11072056560269557
1775509243216939800,4.570939697265625,-0.022029460978507994,-0.32896862725466486,-0.3443656279487535
1775509243226871800,4.580871826171875,0.10348258630633353,-0.25941753664463757,-0.3288014905268326
1775509243236804600,4.5908046875,0.23593115485608576,-0.0931777576521039,-0.12418604111177846
1775509243246737700,4.600737548828125,0.3728121528953314,-0.16866291448622941,0.13137881129323503
1775509243256670700,4.610670654296875,0.6273872179448604,-0.12854279328286647,0.40578751691058274
1775509243266603800,4.620603759765625,0.8822925378620624,-0.09596212767362594,0.6075436496380716
1775509243276536600,4.63053662109375,0.9183984549880028,0.06345540408343077,0.7268851185292005
1775509243286469600,4.6404697265625,0.6921884836792945,0.4097904689416289,0.7195133476521819
1775509243296402700,4.650402587890625,0.09846271231770515,0.49270314542800187,0.3488028432112187
1775509243306335700,4.660335693359375,-1.6497522433638572,0.12688742729127406,-0.9575926935181022
1775509243316268800,4.670268798828125,-1.241252691015601,-0.08891074785739182,-0.5465682988673448
1775509243326201600,4.68020166015625,-0.5097258841603994,-0.2421232874944806,0.0764482023131568
1775509243336134700,4.690134765625,-0.1469061329692602,-0.1762400717422366,0.07696011562435888
1775509243346067700,4.700067626953125,-0.04228840515315532,0.1350719027906656,0.02409386442871764
1775509243356000800,4.710000732421875,0.0023199673801660536,0.15671411801725624,-0.03217287025963887
1775509243365933600,4.71993359375,0.12982991048395634,0.024632629214227198,0.0016542608798947183
1775509243375866600,4.72986669921875,0.2608709503233433,-0.07582096465975045,-0.09142020079451613
1775509243385799700,4.739799560546875,0.3449684526801109,-0.10091507390588521,-0.25312296654507516
1775509243395732700,4.749732666015625,0.3270014188349247,-0.12833616479486226,-0.33475817044153805
1775509243405665500,4.75966552734375,0.25206395901143547,-0.1160889699012041,-0.2894888497814536
1775509243415598600,4.7695986328125,0.10284954909980297,-0.06630407151281834,-0.22173172991611062
1775509243425531600,4.77953173828125,-0.09147241503894328,-0.009985679702460766,-0.12310323257744311
1775509243435464700,4.789464599609375,-0.22661562950015066,0.019044892209768294,-0.06191893349746242
1775509243445397500,4.7993974609375,-0.3427233041018247,0.04888970311433077,0.00631927528255619
1775509243455330600,4.80933056640625,-0.40343291660845276,0.07989478996992111,0.09605041787843219
1775509243465263600,4.819263671875,-0.35752515191435813,0.0901128171235323,0.19027486243871972
1775509243475196700,4.82919677734375,-0.2632265735387802,0.09438333404958248,0.22269067460875958
1775509243485129500,4.83912939453125,-0.1359790807634592,0.05461626406759024,0.1987603119123727
1775509243495062500,4.8490625,-0.033550387424230575,0.05312719455361366,0.18093564567994325
1775509243504995600,4.85899560546875,0.09399170438349247,0.04510901553183794,0.13520722874128258
1775509243514928600,4.8689287109375,0.16592822882533073,0.017680325858294963,0.15358783922288566
1775509243524861700,4.87886181640625,0.12829612504541874,0.06739771196842194,0.11079427929287776
1775509243534794800,4.888794677734375,0.041454876938462254,0.20083938320875167,-0.10930134645453654
1775509243544727800,4.898727783203125,0.022457331001758573,0.10172200637459754,-0.001180421406624373
1775509243554660900,4.908660888671875,-0.1309293961584568,-0.012068915717303752,0.3108962333388626
1775509243564593700,4.91859375,-0.11398527562022208,0.04476502439975738,0.19660191003577782
1775509243574526700,4.928526611328125,0.07004676517248153,0.0945130979090929,0.1721593600335531
1775509243584459800,4.938459716796875,0.17041034267544744,0.04598199897408485,0.2245387136282399
1775509243594392800,4.948392822265625,0.18050445118844508,0.07353110015690326,0.2290948790952563
1775509243604326000,4.958325927734375,0.2146931365162134,-0.04317892425209283,0.09542310715978965
1775509243614258700,4.9682587890625,0.19093582883179186,-0.16370792242735624,-0.025079665162251328
1775509243624191700,4.978191650390625,0.1017804585635662,-0.15942542280256747,-0.09113462531878612
1775509243634124800,4.988124755859375,0.01719546495079994,-0.10323474902510642,-0.14016289665359072
1775509243644057900,4.998057861328125,-0.04272387396097183,-0.07572656437456607,-0.19027327326983212
1775509243653990700,5.00799072265625,-0.031816695499420164,-0.09799684837162494,-0.21507709433250127
1775509243663923700,5.017923828125,-0.008078677037358284,-0.11593991681933402,-0.1309340449341107
1775509243673856800,5.027856689453125,0.12565700871348381,0.04319821347445249,-0.1414822538901586
1775509243683789800,5.037789794921875,0.2294295178771019,-0.060168929758667944,0.00842988792809192
1775509243693722600,5.04772265625,0.2684323254883289,-0.1305453652769327,0.34074246901553124
1775509243703655700,5.05765576171875,0.12467501193881034,0.19570494292974472,0.06991472715749406
1775509243713588700,5.067588623046875,0.04645078552961349,0.3484051491305232,-0.3014848463930189
1775509243723521800,5.077521728515625,0.128245271641016,-0.030722178260982034,-0.3031016887388192
1775509243733454600,5.08745458984375,0.053615854853391647,-0.2091986307531595,-0.11725124601307324
1775509243743387600,5.0973876953125,-0.017148118677735327,-0.09191109871715307,0.0011657421440118922
1775509243753320700,5.10732080078125,-0.02143500221669674,-0.013159925824403762,0.039834006871515885
1775509243763253800,5.117253662109375,-0.009079378512501715,-0.03467237719148397,-0.051994628593418746
1775509243773186600,5.1271865234375,-0.07871580931842327,-0.05986410159319639,-0.13585481506297364
1775509243783119600,5.13711962890625,-0.2533054835051298,-0.025029227316379545,-0.10280579215646721
1775509243793052700,5.147052734375,-0.5431926849544048,0.04975888716429472,-0.015212844332796521
1775509243802985700,5.15698583984375,-0.7100625785440207,0.24070582191199064,0.012006394707993603
1775509243812918800,5.166918701171875,-0.557187308037281,0.3144599171698093,0.0025761112654348836
1775509243822851600,5.1768515625,-0.24463176318407057,0.26153993562608957,0.05614156023899559
1775509243832784600,5.18678466796875,0.11430500909388065,0.17374942397028206,0.2254827347463928
1775509243842717700,5.1967177734375,0.2811690574645996,0.059475686797499656,0.2500742647652514
1775509243852650800,5.206650634765625,0.2915297079592943,-0.26114830595999955,-0.12153036637068726
1775509243862583600,5.21658349609375,0.08003624426722526,0.016848843470215796,0.01760951651125215
1775509243872516600,5.2265166015625,0.03213409088551998,-0.12948738065659998,-0.2253862886345945
1775509243882449700,5.23644970703125,-0.007713350856304168,-0.056739832092821595,-0.117709502041433
1775509243892382700,5.2463828125,-0.02608604289293289,-0.007993629102408886,-0.1043376687657088
1775509243902315500,5.2563154296875,-0.0728536392867565,0.04882540570646524,0.012216087369341402
1775509243912248600,5.26624853515625,-0.17853695050776003,0.17434388273209334,0.24635219376850873
1775509243922181600,5.276181640625,-0.382984587341547,0.0864849820151925,0.1766177276819013
1775509243932114700,5.28611474609375,-0.44214755492806435,-0.025072774197161196,-0.09371946331337094
1775509243942047500,5.296047607421875,-0.4754734859466552,-0.13285890291631222,-0.20800253457007928
1775509243951980500,5.30598046875,-0.2371791090905666,-0.164752755305171,-0.22921554633285848
1775509243961913600,5.31591357421875,0.02587736857831478,-0.20543401752263307,-0.20903114696545524
1775509243971846700,5.3258466796875,0.06773088944554329,-0.06752279965281487,-0.06638891851836815
1775509243981779500,5.335779541015625,-0.1470809050142765,-0.012664251261949538,-0.020073395007289944
1775509243991712500,5.34571240234375,0.15610124681591986,-0.25167612873762846,-0.29938025706289334
1775509244001645600,5.3556455078125,0.3199479931920767,-0.2613429517492652,-0.010173895750939846
1775509244011578600,5.36557861328125,0.004763268879055977,0.18903350234180688,0.2605190498794429
1775509244021511700,5.37551171875,0.07657645920217036,0.5063251358062029,0.2382810241841711
1775509244031444500,5.385444580078125,0.3043441813468933,0.26293665068149563,0.0939898777525872
1775509244041377500,5.39537744140625,0.5092863236993551,-0.06760638628304004,0.08703498058076947
1775509244051310600,5.405310546875,0.39798692616224285,-0.12994535355716944,0.1112283050622791
1775509244061242600,5.41524267578125,0.18618425039052963,-0.12194149532169103,0.027968495638668534
1775509244071175700,5.42517578125,0.027288404420018196,-0.08916296905279159,-0.08113185748420655
1775509244081109500,5.435109619140625,-0.009135492613911628,-0.024109482122957705,-0.11083660233095288
1775509244091042600,5.44504248046875,0.002563128486275673,0.037440380600094796,-0.10850867084003984
1775509244100975600,5.4549755859375,0.07061375140547752,0.015777999368309974,-0.039334414185769856
1775509244110907600,5.46490771484375,0.15235563054680823,0.023819267004728317,0.10106306754183024
1775509244120840400,5.47484033203125,0.2167974153190851,0.0452741429656744,0.16975491097401826
1775509244130773500,5.4847734375,0.2940992661863565,0.06685849052518605,0.10997015822734683
1775509244140706600,5.49470654296875,0.40062195084095,0.054634384246170516,0.06828625830598176
1775509244150639600,5.5046396484375,0.49208676709532734,0.002928454667329788,0.08987148264832794
1775509244160572400,5.514572509765625,0.4928513217270374,0.01357347506135702,0.10034746661838144
1775509244170505500,5.52450537109375,0.35849078207612034,0.06456950280517339,0.10103323865914716
1775509244180438500,5.5344384765625,0.1660913104325533,0.08902619093060493,0.06557219530800357
1775509244190371600,5.54437158203125,-0.008036006939411163,0.12045593293905257,0.014518098967708646
1775509244200304400,5.554304443359375,-0.1207072773516178,0.11103344007730484,0.04506917671179399
1775509244210237400,5.564237548828125,-0.22608780623376368,0.06390519367754459,0.09741818996714427
1775509244220170500,5.57417041015625,-0.34545769750177857,0.018534604600071905,0.10363257096996531
1775509244230103600,5.584103515625,-0.47550797273814677,0.002746083837747574,0.09075237540239468
1775509244240036600,5.59403662109375,-0.48301674093306063,-0.03204436677545309,0.10218847310887649
1775509244249969400,5.603969482421875,-0.39117023188471794,-0.05394435615539551,0.08356887537278235
1775509244259902500,5.61390234375,-0.22074293807446954,-0.07471300341784953,0.09896364757716655
1775509244269835500,5.62383544921875,-0.035242578294873234,-0.07625000372678041,0.11270935566658154
1775509244279768600,5.6337685546875,0.049507250490784645,-0.0909033829793334,0.07542520680781453
1775509244289701400,5.643701416015625,0.02535539053082466,-0.1064271153256297,0.06863203953634947
1775509244299634400,5.653634521484375,-0.025782676032185554,-0.06608662936985492,0.10088732738243415
1775509244309567500,5.6635673828125,-0.050694998970627785,-0.07574234646558761,0.06729142031604424
1775509244319500500,5.67350048828125,-0.08586743463873862,-0.047399756817519664,-0.07167569981487468
1775509244329433600,5.68343359375,-0.11809095737338066,-0.045453298924863335,-0.12648688366636632
1775509244339366700,5.69336669921875,-0.006409282520413399,-0.044428924313187595,-0.08668965600812807
1775509244349299700,5.7032998046875,0.19660802924931048,-0.02510667646676302,0.023474015497323125
1775509244359232800,5.713232666015625,0.43365795900225634,-0.004205050474405289,0.15448354595359415
1775509244369165600,5.72316552734375,0.5988239712834358,0.11048135915249585,0.35111422542612997
1775509244379098600,5.7330986328125,0.7498626740127802,0.09559387888312339,0.1535813364168629
1775509244389031700,5.74303173828125,0.6533791528135537,-0.06211012695431709,-0.12341244465708733
1775509244398964700,5.75296484375,0.14432839143574236,-0.14840835422575474,-0.5333192334547638
1775509244408897500,5.7628974609375,-0.27525895663797856,0.08393938918560742,-0.5379975274641067
1775509244418830600,5.77283056640625,-0.23986966334879398,0.0923629341378808,-0.3493458640467375
1775509244428763600,5.782763671875,-0.05195581268668174,-0.10985007551163434,-0.11173221773011609
1775509244438696700,5.79269677734375,0.10416998404860496,-0.062063657464087006,0.05355405992986634
1775509244448629500,5.80262939453125,0.15616729778945446,0.08222937039732933,0.08371657674778252
1775509244458562600,5.8125625,0.0696563045501709,0.11341185964643954,0.20087626288672908
1775509244468495600,5.82249560546875,-0.1004167689949274,0.13215893795341252,0.20754328302787617
1775509244478428700,5.8324287109375,-0.32211364679336546,0.18636545217633246,0.11577635115492158
1775509244488361500,5.842361572265625,-0.4329460113406181,0.17961568565517663,0.05851318930773995
1775509244498294500,5.85229443359375,-0.4629191247999668,0.09275397928208112,0.07327999320635571
1775509244508227600,5.8622275390625,-0.47158699990212916,0.011030220319330692,0.09829545685886405
1775509244518160600,5.87216064453125,-0.43693361967206,0.039303836384415626,0.03360669332188554
1775509244528093700,5.88209375,-0.32357319795191286,0.07138648934364318,-0.001428589764703065
1775509244538026500,5.892026611328125,-0.13958324273526668,-0.013373276314139365,0.05631390743148513
1775509244547959600,5.90195947265625,0.017546178084611893,-0.057169455681741234,0.13041031332095152
1775509244557892600,5.911892578125,0.11199205597639084,-0.007494447408616542,0.14473907286217436
1775509244567825700,5.92182568359375,0.12989128528237343,-0.007577449516952038,0.11077718202760442
1775509244577758500,5.931758544921875,0.08688976342380046,-0.06693798550218344,0.12269325440390966
1775509244587691500,5.94169140625,-0.0028068741142749784,-0.062140814353525635,0.09994563521868549
1775509244597624600,5.95162451171875,-0.027440964633226393,-0.04417670311778783,0.027945215227780863
1775509244607557600,5.9615576171875,0.047128830921649933,-0.035492169141769406,-0.02589953474435024
1775509244617490400,5.971490478515625,0.1188210252135992,-0.04827917000055313,-0.035708012982690704
1775509244627423500,5.981423583984375,0.15676000298559664,-0.045269466790556906,-0.06997697873874567
1775509244637356500,5.9913564453125,0.21744097391963005,-0.025981413474678992,-0.10515784430848434
1775509244647289600,6.00128955078125,0.24182138193845748,0.003460661847889423,-0.11002818115805275
1775509244657222400,6.011222412109375,0.21617782211601733,0.028841771341860292,-0.0675759089463856
1775509244667155500,6.021155517578125,0.13542904566526412,0.056770227231085296,-0.014614691209979354
1775509244677088500,6.031088623046875,0.03926350437402725,0.10927519823312759,-0.03827341562444344
1775509244687021600,6.041021484375,-0.01842939065992832,0.124615975227952,-0.1672458507625386
1775509244696954400,6.050954345703125,0.040626609420776366,0.04617109180539846,-0.11850916451914235
1775509244706887400,6.060887451171875,0.09296703751087187,-0.007190788286924362,-0.03045429370556958
1775509244716820500,6.070820556640625,0.12187807469666004,0.05915741462856531,-0.021888646002020687
1775509244726753500,6.08075341796875,0.1413210263133049,0.06252572201788426,0.014692688349634409
1775509244736686600,6.0906865234375,0.11678104381859301,0.0004983049109578133,0.017992725408868863
1775509244746619400,6.100619384765625,0.056498132291436194,-0.04244067310541868,0.07815591954649426
1775509244756552400,6.110552490234375,0.06223346107304096,-0.04074263701587915,0.1264066123712342
1775509244766485500,6.120485595703125,0.06119125854372978,0.0010603227078914642,0.07694842518656514
1775509244776418600,6.13041845703125,0.04063187011778355,0.001476210032403469,-0.014404537324327974
1775509244786351600,6.1403515625,0.05823825395703315,-0.03974865754246711,-0.029862657088506966
1775509244796284700,6.15028466796875,0.022676526710391044,-0.0539706596404314,0.04142140392712317
1775509244806217700,6.1602177734375,-0.07740531124174595,0.011551029323041438,-0.0015611209700349717
1775509244816150800,6.17015087890625,-0.12581307605803013,0.011725509107112883,-0.08193359318799338
1775509244826083600,6.18008349609375,-0.13123568562865257,-0.054715340527892106,-0.04971155915753916
1775509244836016600,6.1900166015625,-0.16705401798486708,-0.09836801977157592,0.06576291384082288
1775509244845949700,6.19994970703125,-0.18441548715233802,-0.013685118742287158,0.1025274592722766
1775509244855882800,6.2098828125,-0.18793197084069252,0.03297434110194444,0.0444262574320659
1775509244865815600,6.219815673828125,-0.23208090916872023,0.012716273710131645,0.00909709683228284
1775509244875748600,6.22974853515625,-0.25740707360506054,-0.002168283949792385,0.022482940367050466
1775509244885681700,6.239681640625,-0.13403671452403068,0.0174652218028903,0.030777159851230678
1775509244895614700,6.24961474609375,0.10644845037460327,0.08971826484799385,0.06297550247884355
1775509244905547500,6.259547607421875,0.3423690838366747,0.049635260784626004,0.07695106466822325
1775509244915480600,6.26948046875,0.5787023897528648,-0.08124445101320743,0.12802322638817132
1775509244925414000,6.279413818359375,0.46235213856697077,0.1618701856061816,-0.09214877993054688
1775509244935347000,6.289346923828125,0.05902151328921318,0.3246028332605958,-0.19691417258903382
1775509244945279700,6.29927978515625,0.05124971024394035,-0.08105623496472836,0.09071350469673052
1775509244955212800,6.309212890625,-0.14160685751736163,0.04851268649548292,-0.09207454565055667
1775509244965145900,6.319145751953125,-0.19772797318994997,0.2414770985454321,-0.13042387605542316
1775509244975079000,6.329078857421875,-0.026803835773468017,0.06358429116010665,0.08401309374263509
1775509244985011700,6.33901171875,-0.11106734234690666,-0.06541033754348755,0.1648062573243864
1775509244994944800,6.34894482421875,-0.30460370906591416,-0.009631167176365852,0.11711752749765292
1775509245004877800,6.3588779296875,-0.4186684796631336,-0.059280164225399494,-0.019090996373817323
1775509245014811000,6.368810791015625,-0.43629473724663254,-0.19230214874893425,-0.12311377223776653
1775509245024743700,6.37874365234375,-0.41496202636063095,-0.17975509412586688,-0.14551358263231812
1775509245034676700,6.3886767578125,-0.3361211293578148,-0.08243599888533354,-0.12372457934617996
1775509245044609800,6.39860986328125,-0.2773620663970709,-0.04344809658229351,-0.16328213476333767
1775509245054542800,6.40854296875,-0.11822130575478076,-0.07464987505376339,-0.13477562325783074
1775509245064475600,6.4184755859375,0.0026005378872156143,-0.1072311251848936,-0.024076876761298625
1775509245074408700,6.42840869140625,0.18269874636232852,-0.07796557547301053,0.025264406045433133
1775509245084341800,6.438341796875,0.3320908509284258,-0.030726854436099526,0.05022381952861324
1775509245094274800,6.44827490234375,0.34228666625022885,-0.0627785277351737,0.04522122546834871
1775509245104208000,6.458207763671875,0.3839952256888151,-0.019127309796214104,0.009589483459107578
1775509245114140700,6.468140625,0.3450742511421442,0.04922317285239696,-0.04571775854732841
1775509245124073700,6.47807373046875,0.248146493306756,0.08104454452693462,-0.08650998859228566
1775509245134006800,6.4880068359375,0.14433949735164642,0.041295010201632974,-0.1090569341062568
1775509245143939800,6.49793994140625,0.1788128448396921,0.0726341513171792,-0.025253975982964038
1775509245153872600,6.50787255859375,0.1803776099383831,0.0884933992281556,0.11165040293186902
1775509245163805700,6.5178056640625,0.10116787962317467,0.07356412564367056,0.14133293594680726
1775509245173738800,6.52773876953125,0.012675357177853584,0.06851619460433721,0.14464304687548427
1775509245183671800,6.537671875,-0.1585275971800089,0.04531184462755918,0.12242416427209972
1775509245193604600,6.5476044921875,-0.4984925424844026,-0.04925707512199878,0.2266852972028777
1775509245203537700,6.55753759765625,-0.8108160321474075,-0.11072773512899875,0.40331922710090873
1775509245213470700,6.567470703125,-0.7700269256412983,-0.24170740016996858,0.31461196592636403
1775509245223404000,6.577404052734375,-0.7564169179618359,-0.10854366908818483,0.17146034491872414
1775509245233336800,6.5873369140625,-0.8212234443932771,0.013488427126407623,0.12174432878177613
1775509245243270000,6.597269775390625,-0.7524737332940101,0.043245267486572266,0.4324105892896652
1775509245253203000,6.607202880859375,-0.3127934452623129,0.22827274905741213,0.3111445820767432
1775509245263136000,6.617135986328125,0.06267828223109245,0.2725111192345619,-0.5375011222492904
1775509245273068800,6.62706884765625,-0.8519435768276452,0.022552023547887802,0.6300654241781681
1775509245283001900,6.637001953125,0.26659751127660275,-0.05855623386502266,0.1941154635149054
1775509245292935000,6.646934814453125,0.3808405610501766,0.1261287178784609,-0.5039730562547221
1775509245302868000,6.656867919921875,0.3481535124570131,0.24127953014671802,-0.46848706112541255
1775509245312800800,6.66680078125,-0.29396014997661113,0.1868038435935974,-0.3818061546793207
1775509245322733800,6.67673388671875,-0.5881155302643776,-0.08797463605105876,-0.7565637790866195
1775509245332667000,6.6866669921875,-0.6076882457405328,0.03303600816130638,-0.9946898867037147
1775509245342600000,6.696599853515625,-0.08156476900875569,0.4544032253891229,-0.30373759375587106
1775509245352532700,6.70653271484375,0.24240824191570282,0.4156014933079481,0.057607500039134174
1775509245362465800,6.7164658203125,0.15211539205014704,0.14440788641273974,-0.08878438153136521
1775509245372398800,6.72639892578125,-0.08063011850714683,0.3935784620702266,-0.4604271618537605
1775509245382332000,6.736331787109375,-0.1765162583351135,0.6875655000537634,-0.21454905187040565
1775509245392265000,6.746264892578125,0.14535364283025265,0.6811123783916234,-0.28022023230716586
1775509245402197800,6.75619775390625,0.31060324174165727,0.5993161387145519,-0.20987201823638751
1775509245412130800,6.766130859375,0.3099778033196926,0.47286651831865306,0.0011005542535800486
1775509245422063900,6.77606396484375,0.21599428224265574,0.12650982615053652,0.18893524786541238
1775509245431997000,6.785996826171875,0.09946575188040732,-0.14346622164845466,0.3315835955260321
1775509245441929700,6.7959296875,-0.13263853816390037,-0.32848142825961113,0.44770588317494836
1775509245451862800,6.80586279296875,0.01825637218058109,-0.28626433477699753,0.2074561710000038
1775509245461795800,6.8157958984375,0.3143628865361214,-0.27132044814527034,-0.14664451375785284
1775509245471729000,6.82572900390625,0.4711328263938427,0.07573883933424949,0.20857971340352668
1775509245481661700,6.83566162109375,0.6356412515491247,-0.05256839162707329,0.03351273142811842
1775509245491594800,6.8455947265625,0.013062895190715788,-0.14812135397791862,0.15758757638353854
1775509245501527800,6.85552783203125,0.1843289779126644,-0.6252642344415188,-0.6977351580210029
1775509245511460900,6.8654609375,-0.3363374024569988,-0.6957476374655962,-1.067203115054965
1775509245521393700,6.8753935546875,-1.3381985690295695,-0.3675257369250059,-1.5524435233868659
1775509245531326700,6.88532666015625,-2.7860201268166302,0.5101029007792472,-2.5861612790778277
1775509245541259800,6.895259765625,-3.5383652652949094,1.9902134477525948,-1.4427439622618257
1775509245551192800,6.90519287109375,-2.7857208516091108,3.913239611417055,0.4356626864207908
1775509245561125600,6.915125732421875,-2.9266660303473473,3.236779442745447,-0.42677422737050796
1775509245571058700,6.92505859375,-3.313414354136586,2.4010306293934582,-0.08365173135064542
1775509245580991700,6.93499169921875,-4.439599234992265,1.7347534165620804,-0.017895174185372887
1775509245590924800,6.9449248046875,-3.7172412384986875,1.3709054913669825,-0.012982194637320935
1775509245600857900,6.95485791015625,-2.904717233389616,1.3949866241782902,-0.09403702309625223
1775509245610790700,6.964790771484375,-2.2456243791043757,1.252094403025508,-0.3821635898148641
1775509245620723700,6.9747236328125,-1.4991507630079983,0.8074252206653356,0.11206817168621346
1775509245630656800,6.98465673828125,-0.4852572133362293,0.3556517592579126,-0.19266917369673028
1775509245640589800,6.99458984375,0.43747956311702724,0.08863456126451492,-0.22903164113331584
1775509245650522600,7.004522705078125,0.48275955130159853,0.12161913149952888,0.12759071672242134
1775509245660455700,7.01445556640625,-1.5440332763075828,0.7105956625074148,0.3872728591199964
1775509245670388700,7.024388671875,-0.8122516179084778,1.6817974869221448,-0.537790387519449
1775509245680322000,7.034322021484375,1.3082318853110073,1.9509873527795076,-2.2104224250808358
1775509245690254800,7.0442548828125,1.7609902661025523,1.1450398034512996,-2.8634640165030953
1775509245700188000,7.05418798828125,1.7622271144211292,0.23853169274330138,-2.372788869771361
1775509245710121000,7.064120849609375,2.4611878687143323,-2.1515292143464086,5.227931048130989
1775509245720054000,7.074053955078125,2.0661650530546902,-2.226598191595077,7.99195970789194
1775509245729986800,7.08398681640625,2.478791914466023,0.5028326175153255,2.1885794265851377
1775509245739920000,7.093919921875,2.8086083907216786,0.967572528001666,0.7130934706725179
1775509245749853000,7.10385302734375,2.413340075868368,0.9080407271027564,1.2299562209755182
1775509245759786000,7.113785888671875,2.236609882521629,1.1140431921631098,0.17523242906965314
1775509245769718800,7.12371875,1.519338395512104,1.5752975986212492,-0.24795049581062048
1775509245779651800,7.13365185546875,0.4880816231071949,2.018528857132792,0.5473595223102719
1775509245789585000,7.1435849609375,0.2621525145664811,1.8106255268871783,0.6690266576699913
1775509245799518000,7.15351806640625,0.2405488777846098,2.2292647804558277,1.368481771351397
1775509245809450800,7.16345068359375,0.057467854106426235,3.4988130071073766,2.2300902714945376
1775509245819383800,7.1733837890625,-1.1807573057815433,0.20568039349913597,0.15754256819803267
1775509245829316900,7.18331689453125,-2.062793530794978,-2.0722931805461644,-0.6409253294318914
1775509245839250000,7.19325,-0.6089671796351671,-1.671480091047287,-0.11982642113016917
1775509245849182700,7.2031826171875,0.06725245827883482,-0.7327922967463731,-0.5010388659663498
1775509245859115800,7.21311572265625,-0.5404182518050075,0.018243512699007987,-1.1406103696364909
1775509245869048800,7.223048828125,0.024008652096986768,0.4807335984319448,-1.0512590384047478
1775509245878982000,7.23298193359375,-0.18882424350529908,0.6573211684376001,-0.1918814573851414
1775509245888915000,7.2429150390625,-0.6165402452379465,0.6862526638895273,0.6556388413738459
1775509245898847700,7.25284765625,-0.779139914162457,0.6008090076208115,0.47626723014023153
1775509245908780800,7.26278076171875,-0.9120064158633351,0.41833471766412256,-0.4573918492784723
1775509245918713900,7.2727138671875,-1.8077543553650377,0.3346341056704521,-0.7409497381083667
1775509245928647200,7.282647216796875,-3.5336253772914406,0.42544951810538767,0.12039598291274159
1775509245938580000,7.292580078125,-0.9672525022670626,-0.05786766707897186,-0.2806945352880284
1775509245948513000,7.302512939453125,-0.7996732913643121,0.12303776612579821,-0.49052733575887975
1775509245958446000,7.312446044921875,-0.19075228895843027,0.16209610331654548,-0.500860075333342
1775509245968379100,7.322379150390625,-0.1106086387939751,0.757516988158226,-0.613742212017253
1775509245978312000,7.33231201171875,1.9011052776269615,1.9008745376110077,-0.17686498044123872
1775509245988245000,7.342244873046875,2.168711235293746,3.1343858207195994,0.3629789238082245
1775509245998178000,7.352177978515625,1.0217156215995549,2.5951404120862485,0.09523825211217626
1775509246008111000,7.362111083984375,0.3094558983374387,1.5737246502161024,-0.5933321689341217
1775509246018044000,7.3720439453125,-0.9628711453776806,0.32146891914904113,-0.6255011850025505
1775509246027977000,7.38197705078125,-1.8845728066295384,-0.3097714670926332,0.20589116843929514
1775509246037910000,7.391909912109375,-1.8137299226433037,-0.32324060499668117,0.1354987316343002
1775509246047843000,7.401843017578125,-0.8777420349508523,-0.21359657345116137,-0.23524090756960211
1775509246057775900,7.41177587890625,-0.22604097141735255,-0.454776150354743,-0.12885719299428164
1775509246067709000,7.421708984375,-0.19948910111095755,-2.0783441511481997,0.023675949543900787
1775509246077642000,7.43164208984375,0.7355985863387584,-4.35592784909308,-2.2431053820207714
1775509246087575000,7.441574951171875,2.528617729386687,-3.8667607688367363,-3.1510271589189767
1775509246097507800,7.4515078125,3.164713738965988,-1.174739360666275,-0.748630209608376
1775509246107441000,7.46144091796875,2.4015631288349626,-0.21783377262949943,0.24419103367924688
1775509246117374000,7.4713740234375,2.5079917054653165,0.07608779890239238,0.24267003465704617
1775509246127307000,7.48130712890625,2.608867324143648,0.21747662975490092,0.7101550791330635
1775509246137239800,7.49123974609375,1.839636517316103,0.22697803307175635,0.7886538846999407
1775509246147172900,7.5011728515625,0.8245312537670135,-0.07267243750095367,0.5808140116119757
1775509246157106000,7.51110595703125,0.08385894436053931,-0.1204068331003189,0.24631619087336584
1775509246167039000,7.5210390625,-0.3946434609532356,-0.08174363270699977,0.05007925995877012
1775509246176972000,7.530971923828125,-1.0047652174510062,-0.12361001305580138,-0.12409664579527452
1775509246186904800,7.54090478515625,-1.4204758702218532,-0.18828326849639415,-0.19262358098933471
1775509246196838000,7.550837890625,-1.348896634785086,0.14456862993240355,0.1033597819105722
1775509246206771000,7.56077099609375,-0.9147535226143896,0.2955038722872734,-0.23262840524995698
1775509246216704000,7.5707041015625,0.08135726373791693,0.7229992170065641,-0.11691442440729588
1775509246226636800,7.58063671875,0.7427167477808893,0.6688222211390733,0.23630683803437277
1775509246236569900,7.59056982421875,0.619492519172281,0.5214373647421598,0.40991643340885636
1775509246246503000,7.6005029296875,0.5422364071428776,0.8698562501370907,0.5948818460615352
1775509246256436000,7.61043603515625,0.37239100487381216,0.22686522034704684,0.3757220489926636
1775509246266368800,7.62036865234375,0.282483062672615,-0.6477952152013778,-0.048676055797073056
1775509246276301800,7.6303017578125,0.15922726988196373,-0.8325450488746166,0.06194583977069705
1775509246286235000,7.64023486328125,-0.17848375901579855,-0.5227893638730049,0.317718955498375
1775509246296168000,7.65016796875,-0.6626938013866543,-0.23785832352638242,0.4242029886430129
1775509246306100700,7.660100830078125,-1.1997799861595033,-0.22337387109994886,0.637147564458847
1775509246316033800,7.67003369140625,-1.1102034678697585,-0.11494330699741839,0.8091887962717562
1775509246325966800,7.679966796875,-0.48373716416209933,0.03181026575863361,0.7801039368890226
1775509246335900000,7.68989990234375,0.0740416800275445,0.17238544214069842,0.5760978698102757
1775509246345832700,7.699832763671875,0.6016685470595956,0.0010445406168699263,0.4371774383652955
1775509246355766000,7.70976611328125,1.1636056799724697,-0.18983342054784297,0.07474157192520797
1775509246365699000,7.719698974609375,1.23574386446625,-0.18790332926809786,-0.6788239751935005
1775509246375632100,7.729632080078125,0.6301879545792937,0.2283224334180355,-1.4213399397052824
1775509246385565000,7.73956494140625,-1.1007298293426633,1.6932020935118197,-2.3730695864088833
1775509246395498000,7.749498046875,-0.851227829773724,0.9173188430577516,-2.2100787262097
1775509246405431000,7.75943115234375,-0.47901656538099047,-1.096905010357499,-2.269433709236979
1775509246415364000,7.769364013671875,-0.45936201684027905,-1.160626664161682,-1.2779977828279137
1775509246425297000,7.779296875,-0.047318508274853226,0.09204466196894645,0.2635745284599252
1775509246435230000,7.78922998046875,0.6976794823110103,1.143783665910363,1.135586550125107
1775509246445163000,7.7991630859375,1.219708090944588,1.4979080694705247,1.4707821621358395
1775509246455096000,7.809095947265625,1.257454176492989,1.171935993683338,1.6394889157637953
1775509246465029000,7.819029052734375,0.9966229736581445,0.7717366521686315,1.4776198992013931
1775509246474962000,7.8289619140625,1.0666031033352017,0.6419137559473514,0.844134875838086
1775509246484895000,7.83889501953125,0.9918421691223979,0.5673077200353145,0.1310763760142494
1775509246494828000,7.848828125,0.7307511463075875,0.4955418759852647,-0.2280494068966247
1775509246504761000,7.858760986328125,0.2201674762740731,0.1197182663142681,-0.4397174782369286
1775509246514694000,7.86869384765625,-0.22739333587437865,-0.0577788197517395,-0.3711834191823378
1775509246524627000,7.878626953125,-0.9913695831745862,0.48919747539460656,0.032373941223113795
1775509246534560000,7.88856005859375,-3.327679318593442,0.5844657755851745,1.4149433705359697
1775509246544493000,7.8984931640625,-3.789261057309806,0.8796066597789526,0.4993418162574991
1775509246554425900,7.90842578125,-1.8792194629028438,2.6590087808847427,-2.4089780812665817
1775509246564359000,7.91835888671875,-0.9153627405539154,2.8324077839821578,-1.910755441764742
1775509246574292000,7.9282919921875,-0.17476590753644705,2.468464581719041,-0.1431395652436651
1775509246584225000,7.93822509765625,0.7319187287822365,1.0233189651429653,1.0939870770841835
1775509246594157800,7.94815771484375,2.0232614386126397,-0.9685960258305072,1.2927300725355744
1775509246604091000,7.9580908203125,2.3031655907079576,-1.8542992489188908,1.0410735252812504
1775509246614024000,7.96802392578125,1.2094111533358693,-1.6503665758699178,0.75881250786148
1775509246623957000,7.97795703125,-0.0430018141195178,-1.619237278112769,0.5090238733708858
1775509246633889800,7.987889892578125,-0.4107362253591418,-1.9673218169867992,-0.007402750537171959
1775509246643822800,7.99782275390625,-0.06686112087368964,-2.7380869937747714,-0.16159549685064703
1775509246653756000,8.007755859375,-0.08072101166099309,-2.575545484778285,-0.3962751903409138
1775509246663689000,8.01768896484375,-0.4778203413337469,-1.956891023865342,-0.5817194360191003
1775509246673622000,8.0276220703125,-0.6975801135897636,-1.0204986470252275,-0.49150874801166355
1775509246683554800,8.037554931640624,-0.24822423471808433,0.13172083879709243,-0.0963412631843239
1775509246693487900,8.04748779296875,0.2839478745281696,0.2977823386132717,0.25398588525103405
1775509246703421000,8.0574208984375,0.6221978326082229,0.052397711235284805,0.3351340180166065
1775509246713354000,8.06735400390625,0.5843263671144843,-0.04163023350536823,0.425852692078799
1775509246723286800,8.077286865234376,0.39041444508135315,-0.09215162947475909,0.37057887741792944
1775509246733219800,8.0872197265625,0.6190367382287979,0.27529753508269783,0.3954677829481661
1775509246743153000,8.09715283203125,0.6020549160286783,0.667412938863039,0.017643405081122183
1775509246753086000,8.1070859375,-0.22581629581600426,0.09104805214703082,-0.22632550571346655
1775509246763020000,8.11702001953125,-0.8075326265625655,-0.7629033573716878,-0.536020455237478
1775509246772953000,8.126953125,-0.7905503659710288,-1.0773293722718953,-0.9004225071839987
1775509246782884900,8.136884765625,-0.7957039493419229,-0.3367290321230888,-0.11475183041277341
1775509246792819000,8.14681884765625,-0.8948325782224535,0.36376316952109333,0.803108453444764
1775509246802752000,8.156751953125,-0.7438615339018404,0.8883107752382755,1.076031295285374
1775509246812685000,8.16668505859375,-0.717624538230896,0.9055845661222934,0.8466386022873222
1775509246822617000,8.1766171875,-0.7475731017708778,0.06024433308243751,0.7396680277347564
1775509246832551000,8.186551025390624,-0.4308846948966384,-0.838624076527357,0.18554861936811357
1775509246842484000,8.19648388671875,1.6602125548407434,-2.5949159556806087,0.019245246220612897
1775509246852417000,8.2064169921875,3.217020264786482,0.3245043413221836,-0.01986474352555815
1775509246862350000,8.21635009765625,2.7582793024539947,2.630357855939865,-0.7485395356502383
1775509246872283000,8.226282958984376,1.5189629863284528,1.8470026621699331,-0.8962713057886809
1775509246882216000,8.2362158203125,-0.5849383615329862,1.4104133258908986,-0.2702628653837368
1775509246892149000,8.24614892578125,-2.2621200252227482,0.4385615131348371,-0.9680408761657774
1775509246902082000,8.25608203125,-2.767760247504711,-1.5766975285470484,-0.9418778225138783
1775509246912014800,8.266014892578125,-1.9245934129811821,-4.86921288703978,-0.4019348600704223
1775509246921948000,8.275947998046876,-0.457086765384674,0.16696341709196566,-0.8249648228786886
1775509246931881200,8.285881103515624,0.0876069717824459,1.9427344882190227,0.927942090011388
1775509246941814300,8.295814208984375,0.6498723137363791,1.282141166242957,0.8735402724120765
1775509246951747000,8.3057470703125,0.5490833504281938,1.0955395672231911,0.360031508712098
1775509246961680100,8.31568017578125,0.029092750428244468,0.05019289466738701,1.5548359714813529
1775509246971613200,8.32561328125,0.5974514408212155,-0.297643806925416,1.4317540739528833
1775509246981546200,8.335546142578124,0.7984826202750206,0.2762164034932852,0.8826235233820975
1775509246991479000,8.34547900390625,1.1393137539546936,1.0402847129911184,0.7910028589788823
1775509247001412000,8.355412109375,0.2746914589483291,0.49077977614998813,0.11834398228637874
1775509247011345200,8.36534521484375,0.03486084896828979,-0.4951122523963451,-0.6473487866081297
1775509247021278200,8.3752783203125,0.40878764857463534,-0.26299276478290556,-0.657734936870262
1775509247031211300,8.385211181640624,0.3656745195677504,-0.16316928550601004,-0.41377796767521646
1775509247041144000,8.39514404296875,0.1542132045796141,-0.11532441526949405,-0.35597448840625584
1775509247051077000,8.4050771484375,0.7630021415710448,-0.03944470615983009,-0.20191853848127647
1775509247061010200,8.41501025390625,1.512950740301609,0.09000701866149902,-0.2506845238843933
1775509247070943200,8.424943115234376,2.9745161612808704,0.17378128041326998,-0.834882478846237
1775509247080876000,8.4348759765625,2.608697228273749,-0.29330606998205183,-0.753359868478775
1775509247090809000,8.44480908203125,-0.4130781123101711,-0.2500280692696571,0.22281106785172594
1775509247100742100,8.4547421875,-3.4614036061674356,-0.5760697031617165,1.6217716188959777
1775509247110675200,8.46467529296875,-6.262375218400359,-1.0141296965152025,2.649537188184261
1775509247120608000,8.47460791015625,-5.556035459771752,0.08386778525412082,0.41619587900452315
1775509247130541000,8.484541015625,-2.3571184224307538,0.24983050087094305,-0.8452308543812483
1775509247140474000,8.49447412109375,0.4570616309434175,-0.11619243027567863,-1.1835035357497632
1775509247150407200,8.5044072265625,1.0638409451454878,-0.04025777610838413,-1.0635361169800162
1775509247160340000,8.514340087890625,0.7796610154271125,0.25954291658997536,-0.9470089017920196
1775509247170273000,8.52427294921875,0.39469957505464554,0.6755237646043301,-1.4451605218842625
1775509247180206000,8.5342060546875,0.08407061434984206,0.19280103818178176,-1.0287788379840552
1775509247190139100,8.54413916015625,-0.21349194403290747,0.12878303177952766,-0.001052449928689748
1775509247200072000,8.554072021484375,0.01322188514471054,0.38704000021219254,0.4081032099744305
1775509247210005000,8.5640048828125,2.577173378241062,-0.5641080472111701,0.15056308457423
1775509247219938000,8.57393798828125,0.82757778185606,0.2991144639998674,0.2996882087672129
1775509247229871000,8.58387109375,-0.151496401635278,-0.37062078033089635,0.8584045895352959
1775509247239804000,8.593803955078124,0.1329261046673171,-0.5971849719047546,1.6878152859069406
1775509247249737000,8.603737060546875,-0.04027943995092064,0.11669804171025752,0.3655240417137742
1775509247259670000,8.613669921875,-0.1653016213595867,0.41719899163246155,-0.6374643753230571
1775509247269603000,8.62360302734375,-0.14083355332361533,0.485561749240756,-0.46783572107721116
1775509247279536000,8.6335361328125,-0.03736380823254585,-0.11426467708349228,-0.12055491806780919
1775509247289469000,8.643468994140624,-0.25423662687540055,0.07894611094295978,-0.5014424052659422
1775509247299402000,8.653402099609375,0.03186811515940353,0.16303426094949244,-0.25931504438454284
1775509247309335000,8.6633349609375,0.20129180315136908,0.28823417354524133,-0.7330294665031135
1775509247319268000,8.67326806640625,-0.08897007682919501,0.7180798807829618,-1.4364279109828173
1775509247329201200,8.683201171875,0.009050736939907074,0.1109779104977846,0.3724857339525595
1775509247339134200,8.69313427734375,0.43632220977544783,-0.5659750101268292,0.8597061736531555
1775509247349067300,8.7030673828125,0.8632721955716609,-1.1004244166553019,1.0990935333777219
1775509247359000300,8.713000244140625,0.6850304286181926,-0.31776071228086944,0.6286497852265834
1775509247368933000,8.72293310546875,0.29404607469439503,0.03262859640419483,0.34173842125032095
1775509247378866200,8.7328662109375,-0.0685229166060686,-0.04068506160974502,0.396192078634724
1775509247388799200,8.74279931640625,-0.4809750059723854,-0.09191256002187728,0.42531241118963803
1775509247398732300,8.752732177734375,-0.9100608347535133,-0.010373509976267814,0.22498711498286575
1775509247408665000,8.7626650390625,-1.194114507743716,-0.0798211402118206,0.2555839498311281
1775509247418598100,8.77259814453125,-1.1812766534805297,-0.19956454096734522,0.06415061980597675
1775509247428531200,8.78253125,-0.8139566682606935,-0.20790449928939342,-0.07264069065582007
1775509247438464300,8.79246435546875,-0.3378179964035749,-0.13596212962865828,0.0859233295444399
1775509247448397000,8.80239697265625,-0.1108212586313486,-0.0589203910022974,0.18844171046111732
1775509247458330000,8.812330078125,-0.09089432289004325,-0.12200550046861171,0.025279000826366246
1775509247468263200,8.82226318359375,-0.19991350053548812,-0.19849954208433626,-0.1019853152195923
1775509247478196200,8.8321962890625,-0.12043372110724448,-0.14639935249090194,-0.10738763092085718
1775509247488129000,8.84212890625,0.06135492467284202,-0.191644269362092,-0.1593371965298429
1775509247498062000,8.85206201171875,0.16783026305437088,-0.14326923777163028,-0.13820373454298823
1775509247507995100,8.8619951171875,0.19113398175239563,-0.12051029347479343,-0.10911741385553031
1775509247517928200,8.87192822265625,0.2117313641011715,-0.10330781426131724,-0.10264836397189646
1775509247527861000,8.881861083984376,0.21417817273139952,-0.07324819156229495,-0.10679983936185017
1775509247537794000,8.8917939453125,0.14307108485102651,-0.010273556733131408,-0.0801742644984275
1775509247547727000,8.90172705078125,-0.03745498908075969,0.0960772784858942,-0.05778419004660099
1775509247557660200,8.91166015625,-0.14131518109440802,0.17024609202444552,-0.024689912359416484
1775509247567593200,8.92159326171875,-0.08932312805056572,0.1826128216445446,0.019813757690414786
1775509247577526000,8.931526123046876,0.022667756598757114,0.18557400953769682,0.09912157808523625
1775509247587459000,8.941458984375,0.08785364001989364,0.23090777373611926,0.1827964711157605
1775509247597392100,8.95139208984375,0.014480945295095443,0.2856868271499872,0.06336522331563756
1775509247607325200,8.9613251953125,0.03439092533502262,0.21986323263049123,0.06876487213578075
1775509247617258000,8.971258056640625,-0.043320086288452145,0.09656243165433406,0.07493930472070351
1775509247627191000,8.98119091796875,-0.08129530441761017,0.040888475227355954,-0.050766127978079015
1775509247637124000,8.9911240234375,-0.056446109843254086,0.06331599561274051,-0.008266984417382627
1775509247647057200,9.00105712890625,0.014339500130945817,0.04609247361123561,-0.0018678944974206387
1775509247656990000,9.010989990234375,0.09547697450518608,-0.03143266461789608,0.002362290418241173
1775509247666923000,9.020923095703125,0.10979543184810317,-0.07289104868769646,0.0413731717380695
1775509247676856000,9.03085595703125,0.15403671550154685,-0.07723463084995746,0.034114085721597076
1775509247686789000,9.0407890625,0.1242190848648548,-0.03131342215240002,0.06335121305659414
1775509247696722000,9.050721923828124,-0.05567455008202232,-0.058737435650825495,0.060796359208319335
1775509247706655000,9.060655029296875,-0.22329554516673086,-0.008806406790018081,0.06891039982000366
1775509247716588000,9.070588134765625,-0.2680664147853851,0.05982815349698067,0.07838396528186276
1775509247726521000,9.08052099609375,-0.2360427985370159,0.08793079690933227,0.11552176447249948
1775509247736454000,9.090453857421876,-0.19614274982511995,0.11126841787695885,0.12954429847560822
1775509247746387000,9.100386962890624,-0.17414076137542722,0.11188976464569568,0.08481162370918319
1775509247756320000,9.110320068359375,-0.15386311250030993,0.09038754241168498,0.06238266028538346
1775509247766253000,9.120253173828125,-0.09831132114827633,0.09194295516014099,0.08050988966096193
1775509247776186000,9.13018603515625,-0.07531680996331852,0.07400631645321845,0.028031094279792158
1775509247786119200,9.140119140625,-0.18364391825795173,0.005294599276781082,-0.056761112342868
1775509247796052200,9.15005224609375,-0.34993864230811594,0.02948679124712944,-0.0025457572263665497
1775509247805985300,9.1599853515625,-0.350194078373909,0.07580664387345314,0.024021803839504717
1775509247815918000,9.16991796875,-0.3390484149813652,-0.00523497804403305,-0.02388524491302669
1775509247825851100,9.17985107421875,-0.37005963931679725,-0.10019698876440525,-0.05626688081882894
1775509247835784200,9.1897841796875,-0.42626024996638295,-0.1029699606090784,-0.08522184847788884
1775509247845717200,9.19971728515625,-0.465274163493514,-0.08296645250022411,-0.07866090079341083
1775509247855650300,9.209650390625,-0.45897710917592044,-0.08792144455909728,-0.07817183863483369
1775509247865583000,9.2195830078125,-0.3340156815111637,-0.04887070615291595,-0.09673071915963664
1775509247875516200,9.22951611328125,-0.18772505009174345,-0.04768003506362438,-0.06059853508127853
1775509247885449200,9.23944921875,-0.13607318878769875,-0.06132043788135051,-0.04023019398171455
1775509247895382300,9.24938232421875,-0.18462649955451488,-0.09322539618611335,-0.052320152487047016
1775509247905315000,9.259315185546875,-0.3129121032059192,-0.07723170824050903,0.010325250387750565
1775509247915248000,9.269248046875,-0.3663531860142946,-0.03068447659909725,0.05620314966654405
1775509247925181200,9.27918115234375,-0.32629239378273484,0.028301380854845046,0.06957865447038784
1775509247935113500,9.289113525390626,-0.2508914081007242,0.10765139642357825,0.0504800958446227
1775509247945046500,9.299046630859374,-0.1467488965809345,0.1626087290138006,0.062165126810874785
1775509247954979300,9.308979248046874,-0.12758183929622172,0.1596422804236412,-0.03787033298257738
1775509247964912400,9.318912353515625,-0.1405284146308899,0.15039397508502006,-0.030845987303741274
1775509247974845400,9.328845458984375,-0.07423486451208591,0.14652151756584644,-0.01752787524294108
1775509247984778500,9.338778564453126,0.014795422638324089,0.24004092826247214,-0.04236000908464193
1775509247994711300,9.348711181640626,-0.0206365407488076,0.24118249951303003,-0.17886263879816977
1775509248004644400,9.358644287109374,-0.09354512965977191,0.14496435125172139,-0.3244498346559703
1775509248014577400,9.368577392578125,-0.4869868136078119,0.013473229557275772,-0.3405736517872661
1775509248024510500,9.378510498046875,-0.6263011762738228,0.15654782153964042,0.4389491242129355
1775509248034443300,9.388443359375,-0.4760024782568216,-0.05866670850217342,0.29850440581012516
1775509248044376300,9.398376220703126,-0.5558540136069059,-0.1347077456533909,-0.044674313909001645
1775509248054309400,9.408309326171874,-0.5122749841213226,-0.15884206995666025,0.027722886847145852
1775509248064242400,9.418242431640625,-0.33935353540778157,-0.1313999362796545,0.1050731982323341
1775509248074175500,9.428175537109375,-0.3046083852410316,-0.0936807387381792,-0.054981626781262456
1775509248084108500,9.438108642578126,-0.3407031964510679,-0.10043488917350768,0.02212537736734375
1775509248094041600,9.44804150390625,-0.34327217015624045,-0.10375029733180999,0.08469460973339155
1775509248103974700,9.457974609375,-0.2549228555738926,-0.03150105367898941,0.03276855286415666
1775509248113907500,9.467907470703125,-0.1773708293378353,0.023982933133840558,0.0015092720517888665
1775509248123840500,9.477840576171875,-0.14401099604964254,0.020201076507568357,0.04090538982953876
1775509248133773600,9.487773681640626,-0.19902619630694388,0.0017126491367816924,-0.012180559398233889
1775509248143706600,9.49770654296875,-0.33752865806818005,-0.0002098433583974838,-0.18813094574520364
1775509248153639700,9.5076396484375,-0.42023850545883173,0.054848026996850964,-0.1261572498532012
1775509248163572500,9.517572509765625,-0.3751064013123512,0.11379121435284614,-0.012333448405005037
1775509248173505500,9.527505615234375,-0.3127133657634258,0.1508843889504671,0.03190612734854221
1775509248183439600,9.537439697265626,-0.252227040618658,0.19711890138089655,0.02354582035820931
1775509248193371600,9.54737158203125,-0.12990764276213013,0.25100246725976466,0.018906579717621205
1775509248203305500,9.557305419921875,0.010620771868759765,0.2576274383574724,0.042526853551529346
1775509248213237500,9.567237548828125,0.105916544588143,0.1916787561535835,0.03595079962946474
1775509248223171600,9.577171630859375,0.11379238339662551,0.09221008166372775,0.0234255915120244
1775509248233104400,9.5871044921875,0.007775305610033683,0.1138145952284336,0.08138882791996002
1775509248243037400,9.597037353515624,-0.17457096948623657,0.23826573528349398,0.10763389729950576
1775509248252970500,9.606970458984375,-0.19637831214666365,0.39341011976599694,0.2117720249051228
1775509248262903600,9.616903564453125,-0.17209142763018606,1.0919961955279112,0.8650105636715888
1775509248272836400,9.62683642578125,-0.16799977440237998,0.9142349055677652,0.3363160674080252
1775509248282769400,9.636769287109376,-0.2766390128195286,0.6229647253274917,-0.4732903697539121
1775509248292702500,9.646702392578124,-0.3082195614755153,0.19432664031386374,-0.07455790418768302
1775509248302635500,9.656635498046874,-0.2268669739127159,-0.00883563288450241,0.00909844853915274
1775509248312568300,9.666568359375,-0.22492869932651519,-0.1812006167590618,-0.17938171250252052
1775509248322501400,9.67650146484375,-0.17822656938433645,-0.49251405259668823,-0.2899043900460936
1775509248332434400,9.686434326171875,-0.18803835382461548,-0.5287251836627721,-0.44716362952440974
1775509248342367500,9.696367431640626,-0.10996610310673713,-0.9221551771730184,-0.3115271516535431
1775509248352300300,9.70630029296875,-0.26868483894467354,-0.3010053923130035,0.019743487199489027
1775509248362233300,9.7162333984375,-0.49215457163453097,0.04452595494687557,0.12608486047042533
1775509248372166400,9.72616650390625,-0.5364999093174934,-0.08579963009953498,0.035030451647844164
1775509248382099500,9.736099365234375,-0.4300128804981708,-0.14041267929673193,0.1452680651723407
1775509248392032500,9.746032470703126,-0.17691957843899725,-0.19862229168117046,0.17833112573735416
1775509248401965300,9.75596533203125,0.062049341244366944,-0.24950258409082887,0.15148648302946238
1775509248411898400,9.7658984375,0.15877251185178756,-0.24561902065575122,0.0918184702639468
1775509248421831400,9.77583154296875,0.19414076235294342,-0.2278255898118019,-0.04870276570748538
1775509248431764500,9.785764404296875,0.17400632134079932,-0.14449147304296492,-0.07267576196920127
1775509248441697500,9.795697509765626,0.0891232215642929,-0.08046762142181396,-0.07511968452259898
1775509248451630600,9.805630615234374,0.020244331127405167,-0.02437806993126869,-0.04940294986609369
1775509248461563600,9.815563720703125,-0.017789332340855616,0.010029226583242417,-0.012029533554986118
1775509248471496700,9.82549658203125,-0.09517653025388717,0.06749824973344802,0.039218039530795064
1775509248481429500,9.835429443359375,-0.10972644913196564,0.11793839716017246,-0.006228464327100664
1775509248491362600,9.845362548828126,-0.027692309045791626,0.12662497696280478,-0.03563124881889671
1775509248501295600,9.855295654296874,0.03902034326791763,0.10492518633008002,-0.027490064471960066
1775509248511228700,9.865228759765625,0.004781386774347629,0.021853519889712333,-0.01578452044064179
1775509248521161500,9.875161376953125,-0.045029223727318456,-0.01560731897652149,-0.009932506476808338
1775509248531094500,9.885094482421875,-0.0450187023333041,0.01979308022856712,0.026016521320678294
1775509248541027600,9.895027587890626,0.012768293875025118,0.06355331149995326,0.015112923055700956
1775509248550960600,9.904960693359374,0.06819383078217506,0.0876812060624361,-0.027016017219424246
1775509248560893400,9.9148935546875,0.05095861834287643,0.08336217381954193,-0.08384405731866136
1775509248570826500,9.924826416015625,0.007167411977914161,0.06482990730702877,-0.046775304776243865
1775509248580759600,9.934759521484375,0.030353050404356326,0.05229425086081028,-0.02943462266847491
1775509248590692600,9.944692626953126,0.049590837121009826,0.031238018828630445,-0.01084233306441456
1775509248600625400,9.95462548828125,0.05904723225235939,0.017225860089063644,0.01859323945213109
1775509248610558500,9.964558349609375,0.09646247841119766,-0.00440846409201622,0.024139548467658457
1775509248620491500,9.974491455078125,0.06645078650712967,-0.0037280806124210357,0.07938936119843273
1775509248630424600,9.984424560546875,0.015936404800415038,0.04274725483655929,0.06189074858259409
1775509248640357400,9.994357421875,-0.07372340785861015,-0.010279401952028274,0.04627221409231424
1775509248650290400,10.00429052734375,-0.10804361061155796,-0.07004150447547436,0.09821812643948942
1775509248660223500,10.014223388671875,-0.10905483348071575,-0.015023381608724594,0.09187591780591756
1775509248670156500,10.024156494140625,-0.11313713435828684,-0.002201309436559677,0.07844955959767103
1775509248680089600,10.034089599609375,-0.12864800722301006,-0.00614215601682663,0.08155055782031267
1775509248690022400,10.0440224609375,-0.11364099222719669,-0.025953356423974037,0.07203041327036917
1775509248699955500,10.05395556640625,-0.04935878193080425,-0.05894494092166423,0.08309230736959725
1775509248709888500,10.063888427734375,0.0010164881327422335,-0.01220364801287651,0.07417820242140442
1775509248719821600,10.073821533203125,0.018810501215292607,-0.025929391026496884,0.04396945357527583
1775509248729754400,10.08375439453125,-0.004129060345457401,-0.026343232524394987,0.031614304795116184
1775509248739687400,10.0936875,-0.0017962289171409792,-0.01838964317142963,0.04371445590090006
1775509248749620500,10.103620361328124,0.023758481294778176,-0.024943302598595618,0.02444247693698853
1775509248759553500,10.113553466796875,0.038587217114237134,0.013994623082876205,0.06766323103681206
1775509248769486300,10.123486328125,-0.0010234978288412094,0.041431496062874794,0.10013985174968838
1775509248779419400,10.13341943359375,-0.10673603514432907,-0.0005289923101663589,0.12923574398308993
1775509248789352400,10.1433525390625,-0.13481412863731385,-0.05142974298596382,0.11908537523820996
1775509248799285500,10.153285400390626,-0.06714285585794132,-0.05847498532235622,0.1253626288767904
1775509248809218300,10.16321826171875,0.03703881406188011,-0.046082536739110946,0.10767981880046426
1775509248819151400,10.1731513671875,0.06352350545015652,-0.05031155261099338,0.04754471824616194
1775509248829084400,10.18308447265625,0.0031955811709165572,-0.02447743865251541,0.019256635264307258
1775509248839017500,10.193017578125,-0.06396013873517513,0.02933949173092842,0.04724898670259863
1775509248848950300,10.2029501953125,-0.05068330853283405,-0.0003489595681428909,0.039097354026883836
1775509248858883300,10.21288330078125,0.008003264580434188,0.0016869301736354826,0.043225649470649656
1775509248868816400,10.22281640625,0.011615623558429069,0.029461656805872916,0.0540381719186902
1775509248878749400,10.23274951171875,0.04123626575171947,0.05794599301218986,0.017857874382287264
1775509248888682200,10.24268212890625,0.12139467509388922,0.14962182166874408,0.012226663562282919
1775509248898615600,10.252615478515626,0.003987023809552193,0.3614256664842367,-0.33042649791277945
1775509248908548600,10.262548583984374,-0.3617138357758522,0.8030103268325328,-0.9976886301282792
1775509248918481700,10.272481689453125,-0.3210135765969753,-0.07377659935057163,0.2702523805223405
1775509248928414500,10.28241455078125,-0.15044541301131248,-0.5072381589978933,0.9724006788104772
1775509248938347000,10.292346923828125,0.11256079577505587,-0.6472451801031828,0.8817601114857941
1775509248948280000,10.302280029296876,0.18990414769649505,-0.17023615515232085,0.03207439658753574
1775509248958213000,10.312213134765624,0.13842413582801819,-0.07989888162314891,-0.005104593130014837
1775509248968146200,10.322146240234375,0.019079381284548433,-0.08220248239040374,0.16699768468774853
1775509248978080000,10.332080078125,-0.05355214653399307,-0.005941665008664131,0.10597418392635881
1775509248988013000,10.342012939453125,-0.06680909842550754,0.03726385498940944,0.06636318128891289
1775509248997946000,10.351946044921876,-0.03511631700012367,0.061487611141800874,0.06549542201105504
1775509249007879000,10.36187890625,0.009864395976928063,0.05774433296024799,0.033141222101449964
1775509249017812000,10.37181201171875,0.05964578723397571,0.07047346615195274,0.04378675395213067
1775509249027745000,10.3817451171875,0.06671674396693707,0.0124175830245018,-0.0007065043015405535
1775509249037678000,10.391677978515625,0.028873627784848213,-0.007030629289150238,-0.015285905002430081
1775509249047611000,10.40161083984375,-0.013559149708482435,0.0034592005431652068,0.0075899802049621936
1775509249057544000,10.4115439453125,-0.12560148826711812,-0.011918985852599144,-0.009294519100524484
1775509249067477000,10.42147705078125,-0.17886603633165357,-0.00109013332426548,0.0007649199578911066
1775509249077410000,10.43141015625,-0.08803485093885101,-0.014338321954011916,0.0313707418302074
1775509249087343000,10.441343017578125,-0.026791569946939126,-0.02293897703886032,0.07083641771283
1775509249097276000,10.45127587890625,-0.020531340508395803,-0.009994739791750907,0.04574187007527798
1775509249107209000,10.461208984375,-0.04315174398422241,0.013713468053936957,0.003591667816415429
1775509249117142000,10.47114208984375,-0.07176175239682198,0.011074351722002029,0.003773819450289011
1775509249127075000,10.481074951171875,-0.0024555855917278674,0.046720834642648694,-0.0060557929076254366
1775509249137007900,10.4910078125,0.07112345449328422,0.02713642872869968,-0.00452653751373291
1775509249146941000,10.50094091796875,0.10663023668229579,-0.03302431772351265,0.02773516180682927
1775509249156874200,10.510874267578124,0.0898912924604956,-0.06387362949550152,0.047223779196105896
1775509249166807300,10.520807373046875,0.04264555259433109,-0.05148819517493248,0.08261942916084081
1775509249176740000,10.530739990234375,0.04600947606947738,-0.041057986575365066,0.1234366292502731
1775509249186673200,10.540673095703125,0.0354968453168869,-0.03737432962656021,0.13030673421546815
1775509249196606200,10.550606201171876,0.05124444954693317,-0.04792144260406494,0.11021982213947921
1775509249206539300,10.560539306640624,0.009766191732883452,-0.08375380348563194,0.07890563280209899
1775509249216472000,10.57047216796875,-0.07685761423110961,-0.060334349453449246,0.07389083684738725
1775509249226405000,10.580405029296875,-0.08380524141192436,-0.024496727874875068,0.06828399328365922
1775509249236338200,10.590338134765625,-0.11029051275551319,-0.005409750089049339,0.10555553838917985
1775509249246271200,10.600271240234376,-0.15471768350303172,0.006796236011385917,0.09351866177795454
1775509249256204000,10.6102041015625,-0.16537644016146658,0.02932078703045845,0.07448482068516314
1775509249266137000,10.62013720703125,-0.17242869676053524,0.04509644831120967,0.06251805016808211
1775509249276070100,10.630070068359375,-0.18301497270464895,0.018654431587457655,0.029468324008677153
1775509249286003200,10.640003173828125,-0.15349077205657957,0.02720364874601364,0.021315449223946778
1775509249295936000,10.64993603515625,-0.12460954548716545,0.02301905653774738,0.008362937338836491
1775509249305869000,10.659869140625,-0.09923428121209144,0.01866729106903076,-0.017721863445080817
1775509249315802000,10.669802001953125,-0.0827361508756876,0.03660919047296047,-0.021635420159623026
1775509249325735200,10.679735107421875,-0.057628597626090045,0.04646949023008346,-0.0006793240336701274
1775509249335668000,10.68966796875,-0.07691548189818859,0.0677086776137352,0.018399452179390936
1775509249345601000,10.69960107421875,-0.11294658022224903,0.05362170007228851,0.022877529175207016
1775509249355534000,10.7095341796875,-0.09787409877479075,0.09684358668327331,0.02898110674731433
1775509249365467100,10.719467041015625,-0.15788696118891238,0.04204173691570758,0.021150632317364214
1775509249375400200,10.729400146484375,-0.23028058174848556,-0.003199672824144363,-0.038689412546809764
1775509249385333000,10.7393330078125,-0.2398030278533697,0.007678279542922974,-0.02453435647152364
1775509249395266000,10.74926611328125,-0.21676643565893172,0.008988193097710609,0.017600337690953163
1775509249405199000,10.75919921875,-0.18214052795767782,0.0053641573816537854,0.02228995681190863
1775509249415132200,10.769132080078125,-0.1529278774768114,0.0035486323922872542,0.00440137676410377
1775509249425065000,10.77906494140625,-0.10750760403871536,0.02134907749891281,-0.026679350877273827
1775509249434998000,10.788998046875,-0.10843231766819954,0.016716741523146627,0.02314257331956178
1775509249444931000,10.79893115234375,-0.12552900755279697,0.01478255859017372,0.047652927860990166
1775509249454864100,10.808864013671876,-0.12005319735705852,0.011948796468973158,0.02345291791036725
1775509249464797000,10.818796875,-0.15776245802640915,-0.007338672325015068,0.035877569996472444
1775509249474730000,10.82872998046875,-0.18977847549021243,-0.008680734583735465,0.03322959450464696
1775509249484663000,10.8386630859375,-0.22085516627728938,-0.00044832828938961026,0.02959582284586504
1775509249494596000,10.84859619140625,-0.26166414652764797,0.005838204634189605,0.010990564162377267
1775509249504529000,10.85852880859375,-0.23450258335769175,0.013773673808574676,0.029900413549318907
1775509249514462000,10.8684619140625,-0.1712047079235315,0.002852466821670532,0.07848485010676086
1775509249524395000,10.87839501953125,-0.10536065513789653,-0.009724106156826019,0.07754952375171706
1775509249534328000,10.888328125,-0.07435644963171799,-0.015580430969595908,0.05574524983121082
1775509249544262100,10.89826220703125,-0.07625438307437579,-0.009324877706170081,0.050307442691456525
1775509249554195200,10.9081953125,-0.11264496692717074,-0.014891864183545113,0.05458996058255434
1775509249564128300,10.918128173828125,-0.17103461205363274,0.013508300870656966,0.06854777705268934
1775509249574061000,10.92806103515625,-0.20959376755058765,0.04519873964190483,0.041916302171442654
1775509249583994000,10.937994140625,-0.23730828842818735,0.06731178725063801,0.05844574096156284
1775509249593927200,10.94792724609375,-0.24688918672204016,0.05186462727189064,0.05540080204140395
1775509249603860200,10.957860107421874,-0.19433073196709155,0.05451075786650181,0.05296754701249301
1775509249613793000,10.96779296875,-0.1575941157221794,0.04337912299931049,0.04421959241144359
1775509249623726000,10.97772607421875,-0.12951251509785652,0.03118891898989677,0.0474945589615032
1775509249633659100,10.9876591796875,-0.10657762057906947,0.022281389912962912,0.05207030591182411
1775509249643592200,10.99759228515625,-0.06783785695135593,0.012789923468232154,0.05443754649981856
1775509249653525000,11.00752490234375,-0.06328676951825618,0.01286591131389141,0.10441760213412343
1775509249663458000,11.0174580078125,-0.13478724063038824,0.053795887595415114,0.10989577781688421
1775509249673391000,11.02739111328125,-0.0971054524898529,-0.10711305176317691,0.03403345823343843
1775509249683324200,11.03732421875,-0.271701556417346,-0.05477905341386795,-0.030456074670702216
1775509249693257200,11.04725732421875,-0.23657179084718227,0.015080664753913878,0.03290065481122583
1775509249703190000,11.05718994140625,-0.13493220205903053,0.023719898283481596,0.018658632838539777
1775509249713123000,11.067123046875,-0.09645139076160267,0.011104162338376045,0.037692930589057504
1775509249723056000,11.07705615234375,-0.11299334197342395,-0.0725970341771841,0.05712156141940504
1775509249732989200,11.0869892578125,-0.20561434252560137,-0.09808686474263667,0.04999835847597569
1775509249742922000,11.096921875,-0.2901525743871927,-0.0487421113371849,0.06660046064350754
1775509249752855000,11.10685498046875,-0.34355566327273845,0.025166005438566206,0.04884787326660007
1775509249762788000,11.1167880859375,-0.3463280505955219,0.06825695914626122,0.024457711038738488
1775509249772721200,11.12672119140625,-0.2627414203703403,0.10147884526848792,0.0005502542939037085
1775509249782654000,11.136654052734375,-0.11666881561577319,0.08530629362463951,-0.014696195480972528
1775509249792587000,11.1465869140625,-0.007705752071738243,0.049660395225882524,-0.01585906524788588
1775509249802520000,11.15652001953125,0.02284662258028984,0.024476269608736036,0.005910721881128847
1775509249812453000,11.166453125,0.036544308543205256,0.0022743746727705,0.029505532480217516
1775509249822386000,11.176385986328125,0.02062894653081894,0.028247020319104192,0.012607296910323203
1775509249832319000,11.186319091796875,-0.04823241738253273,0.030702012255787847,0.021456118069961665
1775509249842252000,11.196251953125,-0.08006080331974662,-0.007996843972802162,-0.003224076613038778
1775509249852185000,11.20618505859375,-0.13319676570170558,-0.0059761518001556395,0.035142807714827355
1775509249862118000,11.216117919921874,-0.15742577341794967,-0.003191489517688751,0.016987703951634466
1775509249872051000,11.226051025390625,-0.15501286705732345,-0.013852584263682365,0.02148618441466242
1775509249881984000,11.23598388671875,-0.12961948260366915,-0.03766366796195507,0.009253566035628318
1775509249891917000,11.2459169921875,-0.08033317225403151,-0.059061845299601554,0.006824183464236557
1775509249901850000,11.25585009765625,-0.05993862813413143,-0.015053776746988295,0.05578267749845981
1775509249911783000,11.265782958984374,-0.1411784121053759,-0.08734744406342505,-0.08529628368727862
1775509249921716000,11.275716064453125,-0.06729951229095459,-0.053857262393832206,-0.0716897831391543
1775509249931649300,11.285649169921875,-0.19374562555551528,0.05578033941090107,-0.0097077760765329
1775509249941582000,11.29558203125,-0.3221130622714758,0.0015682722300291061,0.0006900280907750129
1775509249951515100,11.30551513671875,-0.2598725869357586,0.001685176607966423,0.016514789210259912
1775509249961448400,11.315448486328124,-0.17621464504003523,0.05163315660357475,-0.0160657668011263
1775509249971381500,11.325381591796875,-0.12780161039358937,0.06073240886032581,-0.02766001421138644
1775509249981314300,11.335314208984375,-0.1007481929063797,0.06817921773493289,-0.07832027066219598
1775509249991247400,11.345247314453125,-0.09661853662258944,0.00907704042494297,-0.035180545909330244
1775509250001180400,11.355180419921876,-0.1057008377445396,-0.04287584965229034,-0.018246581438928842
1775509250011114200,11.3651142578125,-0.11187456707656383,-0.003093289840221405,-0.030849677098169923
1775509250021047300,11.37504736328125,-0.12216508407765067,-0.014781974068284034,0.01880892802942544
1775509250030980400,11.38498046875,-0.10686813709139824,0.005842296287417411,-0.03202547941189259
1775509250040913400,11.394913330078126,-0.08352466177172027,0.016739537876844405,-0.03472827209718525
1775509250050846500,11.404846435546874,-0.09559503879374824,-0.00005962123274803161,-0.016357516289316115
1775509250060779300,11.414779296875,-0.12942775942385196,-0.0018926818788051604,-0.048225065193139016
1775509250070712300,11.42471240234375,-0.1660468867689371,-0.00881692818403244,-0.02114869608860463
1775509250080645400,11.434645263671875,-0.15530805061161518,-0.020066636472940443,-0.019769516689889133
1775509250090578400,11.444578369140626,-0.12753683111071587,-0.01663432393670082,0.009217983265593647
1775509250100511200,11.45451123046875,-0.1222556849705521,-0.014853870260715484,0.02185943817384541
1775509250110444300,11.4644443359375,-0.07305705290436744,0.01192132394015789,0.03787230574395507
1775509250120377300,11.47437744140625,-0.04430032036430202,0.017447393885254858,0.06873305222541093
1775509250130310400,11.484310302734375,-0.06995615514642559,-0.006201777249574661,0.038054238182120025
1775509250140243200,11.4942431640625,-0.07504617176181637,-0.0018675474375486373,0.007386055130697787
1775509250150176300,11.50417626953125,-0.1506517401052173,0.008600070562958717,0.014805391476489602
1775509250160109300,11.514109375,-0.19328677587211132,0.013838555738329886,0.018869827903807163
1775509250170042400,11.52404248046875,-0.14921208095722832,0.016378303349018096,0.005754983330145478
1775509250179975200,11.53397509765625,-0.08034369364804587,0.0012426935374736784,0.0011226108217611908
1775509250189908200,11.543908203125,-0.061246203601360315,-0.050722471499443054,-0.010696933244355023
1775509250199841300,11.55384130859375,-0.08631050223112106,-0.03176993374824524,-0.00868650673739612
1775509250209774300,11.5637744140625,-0.06991642592423596,-0.03256722160577774,-0.03692826635949313
1775509250219707100,11.57370703125,-0.05085633614533581,-0.033220132556557654,-0.022870295716822146
1775509250229640200,11.58364013671875,-0.07860357198244891,-0.057062780436873434,-0.01675239735841751
1775509250239573200,11.5935732421875,-0.11720013688034377,-0.07626724712252617,-0.04269026395231485
1775509250249506300,11.60350634765625,-0.16845511695444582,-0.04563362392783165,-0.06957626158390194
1775509250259439000,11.613439208984374,-0.18120821554362773,-0.014841010779142379,-0.07895495183654129
1775509250269372200,11.6233720703125,-0.195077750942111,-0.02400163783431053,-0.08444613313134759
1775509250279305200,11.63330517578125,-0.15955284857451915,-0.008925649255514144,-0.0892184255670756
1775509250289238300,11.64323828125,-0.15615794543921946,-0.0031277766317129134,-0.09919150151629
1775509250299171300,11.65317138671875,-0.16482231341004372,0.002660159119963646,-0.1173587341086939
1775509250309104000,11.663104248046874,-0.14807166961729526,0.01218494331240654,-0.08617361451108008
1775509250319037200,11.673037109375,-0.14217793540358542,0.022599369820952415,-0.06129325761348009
1775509250328970500,11.682970458984375,-0.12815993144512175,0.04109364241063595,-0.04291022684592753
1775509250338903600,11.692903564453125,-0.1160018761396408,0.060627194920182224,-0.004015555784292519
1775509250348836400,11.70283642578125,-0.08270926286876201,0.062492404270172115,0.04449694804809987
1775509250358769400,11.712769287109374,-0.06866378638148307,0.07303191846311093,0.07083225299436599
1775509250368702500,11.722702392578125,-0.12355331443250178,0.02416939561665058,0.08039828251264988
1775509250378635500,11.732635498046875,-0.13124153084754944,0.06735211926102638,0.05916789948996156
1775509250388568300,11.742568359375,-0.13781155688762664,0.10141396333873272,0.08467599636446684
1775509250398501400,11.75250146484375,-0.17326339401900767,0.09821896668970584,0.041690110466443
1775509250408434400,11.762434326171874,-0.07394552161011379,0.09336977309286594,0.056902329178154465
1775509250418368300,11.7723681640625,0.03439970229652244,0.047047582378983495,0.0772854842543602
1775509250428301300,11.78230126953125,0.13010638933777807,0.03302081059217453,0.1034910984063521
1775509250438234400,11.792234375,0.12576105360984802,0.053849663609266275,0.13279603028055278
1775509250448167400,11.80216748046875,-0.022174422407150268,0.0805009391695261,0.10030644048824906
1775509250458100200,11.812100341796874,-0.19424597629308699,0.12106851187944412,0.07667604711912572
1775509250468033300,11.822033203125,-0.2362602406799793,0.12604571577012538,0.0824883866596967
1775509250477966300,11.83196630859375,-0.21292028162479398,0.08211071245372295,0.07185264555066824
1775509250487899400,11.8418994140625,-0.18284136970341205,0.034305005183815955,0.07651881073080002
1775509250497832200,11.851832275390626,-0.13765549867623486,0.03590308803021908,0.0792689496891573
1775509250507765200,11.86176513671875,-0.14181553183197973,0.03393324926197529,0.07593717491794377
1775509250517698300,11.8716982421875,-0.08740530259734951,0.016127543458342553,0.07120594514496624
1775509250527631400,11.88163134765625,-0.04130348576903343,-0.028905776488780975,0.049813978352397675
1775509250537564200,11.891564208984375,-0.03044306905865669,-0.0724532417923212,0.029377741382084786
1775509250547497200,11.901497314453126,-0.05582007776624523,-0.08263736667633056,0.019330248489789665
1775509250557430300,11.91143017578125,-0.0690197602123022,-0.07410743874013423,-0.009965952088683843
1775509250567363300,11.92136328125,-0.1204927486849483,-0.07110474979281425,-0.012307254517823458
1775509250577296400,11.93129638671875,-0.13053952919119036,-0.034573885253071784,-0.021467443181574345
1775509250587229200,11.941229248046875,-0.12016660373681225,-0.019866145464777947,-0.004784092471376061
1775509250597162200,11.951162353515626,-0.12443828057348727,-0.003940846580266952,0.021487572654150425
1775509250607095300,11.96109521484375,-0.12486147442162036,-0.010597966381907463,0.02493069884534925
1775509250617028400,11.9710283203125,-0.1331277738524135,0.019999416455626487,0.027378384258411822
1775509250626961200,11.980961181640625,-0.132872346919775,0.016778700843453405,0.014168189551495014
1775509250636894200,11.990894287109375,-0.13451076177656648,0.002777063497900963,0.010879377139173448
1775509250646827300,12.0008271484375,-0.10726445206576027,0.012274375161528586,0.026961985477246344
1775509250656760300,12.01076025390625,-0.058620540406042705,0.013834464085102081,0.010399959591776132
1775509250666693000,12.020693115234375,-0.030730069306492802,0.0412654918462038,0.008082987886294721
1775509250676626200,12.030626220703125,-0.06810322532269637,0.057167994377017015,0.021627711777202782
1775509250686559200,12.040559326171875,-0.09101122726798057,0.0815817201435566,0.04520681335050612
1775509250696492500,12.050492431640626,-0.08216858012080192,0.09596037410795688,0.06341978478077799
1775509250706425300,12.06042529296875,-0.05267009843587875,0.057500002810359,0.05854552980791777
1775509250716358400,12.0703583984375,-0.018226570697361603,0.052695232877135276,0.08857059265021235
1775509250726291500,12.08029150390625,0.01720657999985851,0.05416764351725578,0.08908446045648306
1775509250736224500,12.090224609375,0.037968212999636305,0.01312251642346382,0.056898456720635295
1775509250746157300,12.1001572265625,0.05334522121846676,-0.029141338810324668,0.06078742698319256
1775509250756090400,12.11009033203125,0.03632276561385952,-0.040592707151174544,0.07086286732833832
1775509250766023400,12.1200234375,-0.03998656708472408,-0.035143794095516205,0.024717677149176595
1775509250775957200,12.129957275390625,-0.13470600122087634,-0.04988426710963249,0.00044467502757906914
1775509250785890300,12.139890380859375,-0.18522446544766424,-0.02479951021373272,-0.009059906627051532
1775509250795823400,12.1498232421875,-0.2389700841605663,-0.025876784056425094,-0.04632511332333088
1775509250805756400,12.15975634765625,-0.3083253599375486,0.011853519400954245,-0.07732716797161847
1775509250815689200,12.169689208984375,-0.30460546263158317,0.055154316467046736,-0.0992778646254912
1775509250825622300,12.179622314453125,-0.22283728000521658,0.07319558459222317,-0.08340867984239012
1775509250835555300,12.189555419921875,-0.08916180914216675,0.04619885659515857,-0.044608883989974854
1775509250845488400,12.19948828125,0.038341722487146034,0.04131459168493747,-0.06927289472315461
1775509250855421200,12.209421142578124,0.1578647493571043,0.03445464278757572,-0.07613386653382331
