time,seconds_elapsed,z,y,x
1775428407388277800,0.05527783203125,-0.1720341444849968,0.313050634893775,0.7039948029376566
1775428407398326500,0.065326416015625,-0.33366555289924144,0.41504502846896646,0.8238998970609158
1775428407408376600,0.07537646484375,-0.38844168370366094,0.40508652903437614,0.8881623066782951
1775428407418425600,0.085425537109375,-0.4119488160192966,0.17420915043652058,0.9281177388392389
1775428407428474600,0.095474609375,-0.4300105424106121,0.029414310532808303,0.8947256837818771
1775428407438524700,0.105524658203125,-0.6475649135768413,0.04722469251155853,0.8582803786337375
1775428407448573700,0.11557373046875,-1.1270558184713124,0.056040451651811596,0.7322714146774262
1775428407458623700,0.125623779296875,-1.7010972306758165,0.39196576617658135,0.2798361466267146
1775428407468672800,0.1356728515625,-2.2167805619359013,0.691214085689187,-0.20605499896518886
1775428407478722600,0.14572265625,-2.511088502436876,0.4228600861340761,0.0038750878676772115
1775428407488771600,0.155771484375,-2.3527602272212502,0.34882805071771145,0.12311550753712654
1775428407498821600,0.165821533203125,-1.9834522830545902,0.36782501213252544,0.29275406212247906
1775428407508870700,0.17587060546875,-1.667013174766302,0.4091220681607723,0.693397128816694
1775428407518920700,0.185920654296875,-1.2580951047450304,0.24620704967677592,1.2719941584989427
1775428407528969700,0.1959697265625,-0.7324468443095684,0.012374912926554679,1.5618915890812872
1775428407539018800,0.206018798828125,-0.49233577342033386,-0.21620412560105323,1.583486311904341
1775428407549068800,0.21606884765625,-0.9184311882138252,-0.27672143040597436,1.3136775834962724
1775428407559117600,0.22611767578125,-1.8294968160957097,-0.2780652462303638,0.85918025008291
1775428407569167600,0.236167724609375,-2.718837518903613,-0.34334172826111314,0.4950067461952567
1775428407579216600,0.246216552734375,-3.3598709848850965,-0.2595563605934381,0.2955209695525467
1775428407589266400,0.256266357421875,-3.4606700311958787,0.031389409998059274,0.30689989371169357
1775428407599315700,0.266315673828125,-3.026446547265351,0.3228355313271284,0.501154016778618
1775428407609365800,0.27636572265625,-1.977715785229206,0.5054173733115196,0.7853449793476611
1775428407619414500,0.28641455078125,-1.0036956885233521,0.5233130954861641,1.0676289392516016
1775428407629464600,0.296464599609375,-0.6422440108150244,0.44011634136140343,1.2462599977836013
1775428407639513900,0.306513916015625,-1.0469517696648836,0.282891643473506,1.3223831602603195
1775428407649562600,0.316562744140625,-2.1155840407401323,0.18315175082683563,1.463299551295489
1775428407659612700,0.32661279296875,-2.936532467584312,0.3823404442191124,1.6254888858534395
1775428407669661700,0.33666162109375,-2.817058531419933,0.5995563772112131,1.8557685908190904
1775428407679711500,0.34671142578125,-2.0435741588011385,0.46091772184967994,1.7976184535369275
1775428407689760800,0.3567607421875,-1.7488696201980114,0.40674131050407886,0.7741308538287878
1775428407699810800,0.366810791015625,-2.291673013573885,0.29313480506837364,-0.8265082529284059
1775428407709859600,0.376859619140625,-2.7141628050908446,0.23795418511629104,-1.7990728901289403
1775428407719909600,0.38690966796875,-2.626408241531253,0.1378776078611612,-2.0066902430400253
1775428407729958700,0.396958740234375,-2.914256338368356,-0.026360183659195898,-1.8923596611134708
1775428407740007700,0.407007568359375,-3.4411586905181406,0.15491349833607673,-1.8250963891796768
1775428407750057700,0.4170576171875,-3.2603350903779265,0.9135743958324194,-2.017903126449883
1775428407760106500,0.4271064453125,-3.4368250452280042,1.145149109044671,-1.9102448618941008
1775428407770156500,0.437156494140625,-3.2552351368904113,1.5220698663026093,-1.5204419728398322
1775428407780205800,0.447205810546875,-2.6361884617894886,2.0451105745881795,-1.5553161562137305
1775428407790255600,0.457255615234375,-2.176299498465657,2.400126374030113,-1.4708119727522133
1775428407800304600,0.4673046875,-1.4753104532152412,2.7338211530238388,-1.381481976569444
1775428407810354700,0.477354736328125,-0.3704752343803644,3.2381676822334526,-1.5094523767918346
1775428407820403500,0.487403564453125,0.8232166640371084,3.7027842586010693,-1.0900722417280078
1775428407830453800,0.497453857421875,2.1331471699595452,3.9588007546305652,-0.18638364542014896
1775428407840502800,0.507502685546875,3.0971044300734993,4.202386223632097,0.1155502599146217
1775428407850551600,0.517551513671875,3.084531364226341,4.181139437463879,-0.22682700722850857
1775428407860601600,0.5276015625,2.3611166982866822,3.9791386092603203,-0.7342517017744481
1775428407870651000,0.53765087890625,1.9586393288373947,4.066095008179545,-1.2139326493483036
1775428407880700700,0.54770068359375,2.0649040932081637,4.145456129664183,-1.2849756590165198
1775428407890749700,0.557749755859375,2.3756302306771278,3.6297476639628408,-1.4317349308609961
1775428407900799700,0.5677998046875,3.157505415022373,2.670843595585227,-0.8747413918301462
1775428407910848500,0.5778486328125,2.916016918300092,2.395615034085512,-0.7107431812193244
1775428407920898600,0.587898681640625,1.7126617040023207,2.232050027260184,-1.2807457663618027
1775428407930947600,0.597947509765625,0.6527572215229273,1.5982196245253084,-1.8168077226534485
1775428407940997600,0.60799755859375,-0.2198939200296998,1.0910872639894484,-2.672762580949068
1775428407951046700,0.618046630859375,-0.4126034805357456,0.5262526560693979,-2.482837390464544
1775428407961095700,0.628095703125,0.1464098738849163,0.29317046090364457,-1.5849129837065934
1775428407971145700,0.638145751953125,0.8084487184941768,0.4566407751828432,-0.6790881060224025
1775428407981194800,0.64819482421875,1.8132529527813195,0.44056583869457244,0.20686646147854626
1775428407991244500,0.65824462890625,2.8247873721063135,0.19554127680063246,0.6355922978408635
1775428408001293600,0.66829345703125,3.386900738368928,-0.06455868915021419,0.615203005284816
1775428408011344400,0.678344482421875,4.3488761770159,-0.5991174012720585,0.5207343310393393
1775428408021393700,0.6883935546875,4.963707864770293,-0.7919096716254949,0.8368006604924797
1775428408031443700,0.698443603515625,5.027305599933863,-0.5463923577785491,0.832680365692079
1775428408041492500,0.708492431640625,4.578026877951622,-0.37018121986985203,0.8511522072542458
1775428408051541500,0.71854150390625,3.5966780457928773,-0.297763049390912,1.0351413587532936
1775428408061591600,0.728591552734375,1.9140157587349413,-0.05071545723676681,1.3729495644152163
1775428408071640600,0.738640625,1.509550576469302,0.1996177324593067,1.9130784778848289
1775428408081690600,0.748690673828125,0.9752876324236393,0.5308727170854807,1.2874760975301265
1775428408091739400,0.758739501953125,-0.7101306753441691,0.30595278558731076,0.3129469553235918
1775428408101789400,0.76878955078125,-1.7619184868633746,0.35373394293785093,-0.841217454021424
1775428408111838500,0.77883837890625,-2.4678204385966063,0.0592079757720232,-1.4102072819247842
1775428408121888500,0.788888427734375,-2.3572020090609787,-0.06755728644430636,-0.9601103754274547
1775428408131937500,0.7989375,-1.793121434378624,0.14174655824899673,0.1323373449939303
1775428408141987600,0.808987548828125,-0.6365268022119999,0.35940146718025207,1.2255738411728292
1775428408152036400,0.819036376953125,1.2556000730589032,0.32172610878050323,2.7445474219605326
1775428408162085600,0.829085693359375,2.714195246055722,-0.050321489483118056,3.4763387249708173
1775428408172135700,0.8391357421875,2.860151238693297,-0.39983576889932154,1.915662503028661
1775428408182184400,0.849184326171875,1.992936150714755,-0.05343932924270629,-0.29306557575706393
1775428408192234500,0.859234375,0.747084149210155,0.607055793055892,-0.7749651126958429
1775428408202283500,0.869283447265625,-0.3305725553199649,0.468276852440834,0.013414192846417426
1775428408212333600,0.87933349609375,-1.0720078849881887,-0.5370131195366382,0.8877313679151236
1775428408222382600,0.889382568359375,-1.305600952285528,-1.1630226193875073,1.0146328237317501
1775428408232432600,0.8994326171875,-1.017660793250799,-0.9877344415426254,0.41789179620221256
1775428408242481400,0.9094814453125,-0.6005427579000592,-0.2904202854126692,0.10394267809875309
1775428408252531500,0.919531494140625,-0.26562895850539203,-0.11069149477183818,0.2968745030533522
1775428408262580700,0.929580810546875,0.11186521472632885,0.03922375688552856,-0.14560794638488442
1775428408272629500,0.93962939453125,0.3761439276665449,-0.12889876711368561,-1.3533239497080445
1775428408282679600,0.949679443359375,0.5697732333660125,-0.1834615474283695,-1.6966573485322296
1775428408292728300,0.959728271484375,0.7206815877139567,-0.10433657278716564,-1.1324025132615119
1775428408302778400,0.9697783203125,0.5951064120650291,0.09589724574387073,-0.6926508404940366
1775428408312827600,0.97982763671875,0.3802876033425331,0.9508066866397857,-0.5139193903274833
1775428408322877400,0.98987744140625,0.29825375551730393,0.9360825802385806,-0.3971904420223087
1775428408332926500,0.999926513671875,0.3014332623362541,-0.1478127264201641,-0.4561027958486229
1775428408342976500,1.0099765625,0.09040975424349307,-0.652828533193469,-0.5035809151319787
1775428408353025500,1.020025634765625,-1.0320508453920483,-0.4307745125204325,0.29353078211601824
1775428408363074600,1.030074462890625,-0.4196779489666223,-0.5567839879333972,0.044371750765852626
1775428408373124600,1.04012451171875,-0.11070084712207316,-0.4742980124264955,-0.13025138729903846
1775428408383173400,1.05017333984375,-0.13150427343696355,-0.11883505373895167,0.302653853639774
1775428408393223400,1.060223388671875,0.14618541747927666,-0.061226329857110975,0.24885683353319762
1775428408403272700,1.070272705078125,0.3091603494569659,0.10776654723584651,0.2787246965197846
1775428408413322500,1.080322509765625,0.418719917589426,0.33483225859105586,0.2192574122244492
1775428408423371500,1.09037158203125,0.47138738567680116,0.41226445783972737,0.32570283039174974
1775428408433421600,1.100421630859375,0.3237731044381857,0.3589788578540086,0.6280394713085145
1775428408443470600,1.110470703125,0.18594079702347516,0.28686230067014695,0.13619422135148196
1775428408453520600,1.120520751953125,0.018050912736356256,0.15878887846469877,0.10857600045520811
1775428408463569700,1.130569580078125,-0.16533961528241634,-0.21818916193842885,-0.2401121668677777
1775428408473618400,1.140618408203125,-0.2579907187119126,-0.3284428498148918,-0.5872832806913182
1775428408483668500,1.15066845703125,-0.3016150486439466,0.13901859458982943,-0.2868342801520601
1775428408493717500,1.160717529296875,-0.08185118473470211,0.24507892242968082,-0.2514969727784395
1775428408503767600,1.170767578125,-0.03836509422957897,0.22328911542594432,-0.10329131978424265
1775428408513816600,1.180816650390625,-0.011200900711119174,0.3224497468799353,-0.0794201216628775
1775428408523866400,1.190866455078125,0.14589929401427507,-0.09933072732388973,-0.1778845875462517
1775428408533915400,1.200915283203125,0.028327099817991256,-0.23093875339627265,-0.13122585835438222
1775428408543965700,1.210965576171875,-0.2911287259429693,-0.06457330219745636,-0.1610271771770902
1775428408554014500,1.221014404296875,-0.3897404913425445,0.13489128552675247,-0.044486152659449725
1775428408564064500,1.231064453125,-0.42039281923770905,-0.01974047325849533,0.2669492107911035
1775428408574113500,1.241113525390625,-0.33169162247776984,0.014154197558760642,-0.017577084679529068
1775428408584162600,1.25116259765625,0.24894904186129568,-0.08020517109334468,0.010684238159563392
1775428408594212600,1.261212646484375,0.4285334555953741,-0.028441666108369824,0.25200936101367694
1775428408604261600,1.27126171875,0.21127368346154687,-0.021664719319343564,0.27839248715704307
1775428408614311400,1.2813115234375,0.3301280264228582,0.01239537119269371,0.22765103696249425
1775428408624360400,1.2913603515625,0.5361828061923385,0.21895079396069048,0.22064468359807504
1775428408634410500,1.301410400390625,0.39968642355650663,0.020032149681448935,-0.10895637807492166
1775428408644459500,1.31145947265625,0.2788935137480497,0.018945523488521576,-0.2796543055200949
1775428408654509600,1.321509521484375,0.1355924195334315,-0.043650341156125066,-0.37447066069208085
1775428408664558300,1.331558349609375,0.0029372224956750867,-0.10407412245869636,-0.3990185342323035
1775428408674608400,1.3416083984375,-0.29374563044309615,-0.10584347021877764,-0.3416144660770893
1775428408684657700,1.35165771484375,-0.9028566024631262,-0.06480126573443412,-0.18781998009989037
1775428408694706400,1.36170654296875,-1.244540626645088,0.020454759007692336,-0.33443186109662054
1775428408704756500,1.371756591796875,-1.1442635583817957,-0.3686135321617126,-0.7210374884795397
1775428408714805500,1.381805419921875,-1.0308984604865312,-0.4235322863072157,-0.8404082565303891
1775428408724855300,1.391855224609375,-0.7382546538054943,-0.1258136605799198,-0.5369917479550466
1775428408734904600,1.401904541015625,-0.24928046577274798,0.11744272259771824,0.08549620843986049
1775428408744954600,1.41195458984375,0.10853314769417047,0.08380407236814498,0.6095400841522961
1775428408755003400,1.42200341796875,0.3585822597518563,0.17095570159852505,0.5768978245489299
1775428408765053400,1.432053466796875,0.265798762114346,0.25946459065675737,0.4783982873521745
1775428408775102700,1.442102783203125,0.3298872034043073,0.13587211325764656,0.49580169596523044
1775428408785152500,1.452152587890625,0.36911797455251216,0.24269758025109767,0.5972220890447497
1775428408795201500,1.462201416015625,0.1963008629962802,0.40272856773138044,0.5196789767675102
1775428408805251600,1.47225146484375,-0.013985562993586062,0.4250345075637102,0.3994203199662268
1775428408815300400,1.48230029296875,-0.01031447326540947,0.21117489926218985,0.3155655037915334
1775428408825349600,1.492349609375,0.05546294402480125,0.0402548534989357,0.14563187524974344
1775428408835399700,1.502399658203125,-0.04833236149251461,0.06999065107107162,0.13077785885855556
1775428408845448400,1.512448486328125,-0.028218671007454392,0.11107669469714164,0.1805302797494456
1775428408855498500,1.52249853515625,0.04672901794910431,0.13834756346046923,0.05967789483871311
1775428408865547500,1.532547607421875,0.08764496570527552,0.1996089646309614,0.003243146639689803
1775428408875597600,1.54259765625,0.17701894716024397,0.20540566821098327,0.10869798286706209
1775428408885646600,1.552646484375,0.24373101495206353,0.07299743167161941,0.17001779969390482
1775428408895696600,1.562696533203125,0.26249650569856164,-0.09428688793778418,0.05322185056712478
1775428408905745400,1.572745361328125,0.3359288216561079,-0.0025695582270622254,-0.025443982129730282
1775428408915795500,1.58279541015625,0.5014595755964517,-0.08793196595311165,0.07817300767861306
1775428408925844500,1.592844482421875,0.5917261219769716,-0.19181962592899798,0.05204992071092129
1775428408935893500,1.6028935546875,0.4905822077512741,-0.17729367244839667,0.09594861060492693
1775428408945943600,1.612943603515625,0.2601481890067458,-0.14992694209516047,0.18309782868251204
1775428408955992600,1.62299267578125,0.07172375847399234,-0.2299953350663185,0.1898754695912823
1775428408966042600,1.633042724609375,-0.06812602624297141,-0.1885422116935253,0.1134810158925131
1775428408976091600,1.643091552734375,-0.243700327552855,0.13829086483716965,0.2746905821654945
1775428408986141400,1.653141357421875,-0.2579547706156969,0.26448271107971666,0.3065894395230338
1775428408996190500,1.6631904296875,-0.2269225034922361,0.32182898463308807,0.16695128826275468
1775428409006239500,1.673239501953125,-0.12325988444387911,0.3523264142274856,0.026705818759091195
1775428409016288500,1.68328857421875,0.02345744795501232,0.3181342217683792,-0.08492993459291756
1775428409026338600,1.693338623046875,0.14232260457128285,0.29050737917423247,-0.09362835096381604
1775428409036387300,1.70338720703125,0.3607043664723634,0.31079379587769507,0.09196863759066909
1775428409046436600,1.7134365234375,0.40994682854712006,0.5793482864409685,0.24687110307607799
1775428409056486700,1.723486572265625,0.21949352253526447,0.5435393064349889,0.10779628478698432
1775428409066535400,1.733535400390625,0.26719255456030366,-0.27971359795928,-0.05729870808459818
1775428409076585500,1.74358544921875,0.20736586236804722,-0.2744762818276882,-0.28570797953587024
1775428409086634800,1.753634765625,0.0828077548071742,-0.235947521468997,-0.13462660670857876
1775428409096684500,1.7636845703125,0.03547755609452724,-0.13890052116811274,0.18126688692830503
1775428409106733600,1.773733642578125,-0.02224398051202297,-0.39136838480532166,0.17223795996140687
1775428409116783600,1.78378369140625,-0.06958850001096725,-0.3140618577629328,0.11142485054768621
1775428409126832400,1.793832275390625,-0.05245616342425346,-0.22263561995327472,0.0892629588285461
1775428409136882400,1.80388232421875,-0.02875643114596605,-0.08537760529518126,0.19357801390364765
1775428409146931500,1.813931396484375,0.17616525294035673,-0.08605155903398991,0.13442122032959014
1775428409156980500,1.82398046875,0.2365308743149042,-0.08940203850567341,-0.08083345905952155
1775428409167030500,1.834030517578125,0.14124007003158331,-0.07302724228799343,-0.14777407491020858
1775428409177079600,1.84407958984375,0.11196925962269305,0.0006704466074705124,-0.08117964214868843
1775428409187129600,1.854129638671875,0.0678343498200178,0.29947160687446595,0.08994926059227436
1775428409197178600,1.8641787109375,0.0035819501399993892,0.14417933835387228,-0.055662339054420584
1775428409207228400,1.874228515625,0.11935878535211085,-0.1711450866907835,-0.21429617308788002
1775428409217277400,1.88427734375,0.08149462638199328,0.0376402870863676,-0.09455777730103582
1775428409227327500,1.894327392578125,-0.060490416797995564,-0.05581015002727508,0.17639022080264985
1775428409237376500,1.90437646484375,-0.1861193684607744,-0.13975509217083454,0.3092705683657899
1775428409247425500,1.914425537109375,-0.21728841370642185,-0.3039215720206499,0.07176851093117147
1775428409257475600,1.9244755859375,-0.19288228672444818,-0.4127805906683206,-0.10205934857018291
1775428409267524600,1.934524658203125,-0.16871669050008056,-0.23757950658500193,-0.2236541858786717
1775428409277574700,1.94457470703125,-0.10957388891875743,-0.08702654154598713,-0.19021536907013503
1775428409287623700,1.954623779296875,-0.05152180518358945,-0.034166473495960234,-0.09879906813260167
1775428409297673500,1.964673583984375,0.003095627927780151,0.004725859478116035,-0.048825807565264404
1775428409307722500,1.974722412109375,0.07662555904090404,-0.03628361178040504,-0.06203216634728014
1775428409317772500,1.9847724609375,0.09032850570082664,-0.07616495579183101,-0.02131174116320908
1775428409327821600,1.994821533203125,0.14131255074590443,-0.09157996706664562,-0.019116569206491112
1775428409337871600,2.00487158203125,0.16182254707217217,-0.0620183570176363,0.026847455719485876
1775428409347920400,2.01492041015625,0.15519728371351957,-0.06700549778044224,0.07804419366717338
1775428409357969400,2.024969482421875,0.11925649402141571,-0.12615268327593804,0.07279964407719672
1775428409368019500,2.03501953125,-0.005754618003964424,-0.06406184554398059,0.01468129017278552
1775428409378068500,2.045068359375,-0.2159475204914808,0.02885141595304012,-0.00338361455630511
1775428409388118500,2.055118408203125,-0.3393015129595995,0.06306523572206497,-0.07680299796704203
1775428409398167600,2.06516748046875,-0.3070850044876337,0.07005728656649589,-0.12306593277435748
1775428409408217300,2.07521728515625,-0.21098259156048296,0.057246904832124704,-0.07989632433988153
1775428409418266600,2.0852666015625,-0.04684884493649005,-0.011671733093261718,-0.06354297276902944
1775428409428316700,2.095316650390625,0.17220950105190277,-0.051533203360438345,-0.11836827647741884
1775428409438365400,2.105365478515625,0.2976800472825765,-0.06999006654918194,-0.06792772719189524
1775428409448415500,2.11541552734375,0.3224640676662326,-0.09496902498304843,-0.044951925273984665
1775428409458464500,2.125464599609375,0.25496581793278456,0.07666881366074085,0.09337415700703859
1775428409468514600,2.1355146484375,0.013608254113793372,0.23204817594289778,-0.0028619653023779393
1775428409478563600,2.1455634765625,-0.014093407282233237,-0.3998135570675134,0.03757891228795052
1775428409488612400,2.1556123046875,-0.02707067001610994,-0.32786884931921956,-0.16838596070837228
1775428409498662400,2.165662353515625,-0.2085106484889984,-0.05099719678759575,-0.029519487940333784
1775428409508711700,2.175711669921875,-0.23633564400374887,-0.015215104788541793,0.05437916737608611
1775428409518761700,2.18576171875,-0.17361761428415776,0.007825579059123993,-0.012007723581977188
1775428409528810500,2.195810546875,-0.10429214912354945,0.020942834785580632,-0.021565788989514112
1775428409538860500,2.205860595703125,-0.04938157828450203,0.017077976050972936,-0.11550247525013982
1775428409548909300,2.215909423828125,-0.056738955309987064,0.02184709014892578,-0.06065850337389856
1775428409558959400,2.22595947265625,-0.13168372165709732,0.0702045860826969,-0.020601547067239878
1775428409569008600,2.236008544921875,-0.16140461392104624,0.07762567599415779,-0.06646748191360384
1775428409579058400,2.246058349609375,-0.14334522561728955,0.10163491261303424,0.009471446570008993
1775428409589107500,2.256107421875,-0.10475859759151936,0.08488719142973422,0.040421771031059324
1775428409599156700,2.26615673828125,-0.07207534839063882,0.06921089887022971,-0.019204430153034625
1775428409609206500,2.27620654296875,-0.06863397576510906,0.08706804260015487,0.014908888383582234
1775428409619255600,2.286255615234375,-0.04079553624689579,0.13309388071596623,0.03439787109903991
1775428409629305600,2.2963056640625,-0.0042407063096761705,0.13544950393140315,0.006379216175712645
1775428409639354400,2.306354248046875,-0.0282794612839818,0.14570903213918207,-0.002085026113130152
1775428409649404400,2.316404296875,-0.16812778469622133,0.14554536601006984,0.03431450366452336
1775428409659453700,2.32645361328125,-0.2945174915984273,0.09480185172259807,0.02583572139367461
1775428409669503500,2.33650341796875,-0.17447919954955576,0.038602410116791726,0.01722246255557984
1775428409679552500,2.346552490234375,0.018938216964900494,0.007023030504584312,0.06511080660764128
1775428409689601500,2.3566015625,0.19506021528542042,-0.03237316033840179,0.08374397621136158
1775428409699651600,2.366651611328125,0.21953239324092863,-0.044244799917936325,0.09113609575666487
1775428409709700600,2.37670068359375,0.14641688814759254,-0.06447802512943744,0.04881594375837594
1775428409719750700,2.386750732421875,0.10445230812132358,-0.032358547291159626,0.05566219292394817
1775428409729799400,2.39679931640625,0.06115677175223827,-0.0014379238486289978,0.09807645294647663
1775428409739849500,2.406849365234375,0.06556348227858542,-0.046800914141535754,0.07062467465829103
1775428409749898500,2.4168984375,0.1001467198818922,-0.11492694038450717,-0.045614919227361675
1775428409759948500,2.426948486328125,0.10836509765088558,-0.11946516833603381,-0.04105930174961686
1775428409769997600,2.43699755859375,0.11476795043051242,-0.06180383748412132,0.0729804805368185
1775428409780047400,2.44704736328125,0.0673144175991416,-0.019629998621344565,0.1256765171315521
1775428409790096600,2.4570966796875,-0.0807926155924797,0.01926817957162857,0.10921817081626504
1775428409800145700,2.467145751953125,-0.17738193525373935,0.005776829835772514,-0.003552614447660744
1775428409810195500,2.477195556640625,-0.20314473754167556,0.0041512744605541226,-0.0017469167325645685
1775428409820244500,2.487244384765625,-0.1134656356602907,0.035897827333211896,0.0299678527623415
1775428409830294500,2.49729443359375,0.05194353772699833,0.03505553129017353,-0.007654642939008772
1775428409840343600,2.507343505859375,0.10899404320418835,0.0448252301543951,0.008456351243332027
1775428409850393600,2.5173935546875,0.10813479602634907,0.048070495685935015,0.03578070375956595
1775428409860442600,2.527442626953125,0.08089490692317486,0.030246669703721998,0.021507263735309243
1775428409870492400,2.537492431640625,-0.009564531680941582,0.06289455533027649,0.10477631591130047
1775428409880541400,2.54754150390625,-0.09909867213368415,0.036484687310457224,0.11746982980035245
1775428409890591700,2.557591796875,-0.08361760988533497,0.04919160867035389,0.05098985373135656
1775428409900640500,2.567640625,-0.014018003958463667,0.024948563295602796,-0.04183467003628611
1775428409910689500,2.577689453125,0.03952361661493778,-0.025317396607995032,-0.034691575082298365
1775428409920739300,2.5877392578125,0.05296937364339828,-0.04938566993772983,0.09944741250611841
1775428409930788600,2.59778857421875,0.0948351694703102,-0.04565934289097786,0.13700433215796948
1775428409940838700,2.607838623046875,0.12579495587944983,-0.08847147965729237,0.06634040320152416
1775428409950887400,2.617887451171875,0.11275953321754932,-0.1240145022034645,-0.03129652581652626
1775428409960937500,2.6279375,0.07085749703347682,-0.09881167188584804,0.006876096314564347
1775428409970986500,2.637986572265625,0.06977087084054946,-0.055578094837069505,0.05246184424636885
1775428409981036500,2.64803662109375,0.09773644386976957,-0.06581599573493004,0.046249436004925516
1775428409991085600,2.65808544921875,0.13887830933630466,-0.08313479480445385,0.08516737834429368
1775428410001135600,2.668135498046875,0.14747224241942167,-0.07406710672974585,0.1528543007839471
1775428410011184400,2.678184326171875,0.11958557984530925,-0.13607669591903684,0.022694007568154484
1775428410021233700,2.688233642578125,0.04604103568494319,-0.23026772226691244,-0.04946132898982614
1775428410031283500,2.698283447265625,0.0017415829703211784,-0.19493103594779967,0.08320999719882384
1775428410041332500,2.70833251953125,-0.04228343671709299,-0.1385410402059555,0.20093464201046152
1775428410051382500,2.718382568359375,-0.04009615580588579,-0.07713818473815917,0.20772337056882678
1775428410061431300,2.728431396484375,-0.09390577966570854,-0.049073535248637196,0.22282343414295464
1775428410071481300,2.7384814453125,-0.18612287559211252,-0.05286532874703407,0.1530153182982467
1775428410081530400,2.7485302734375,-0.230430803874135,-0.03434767528176307,0.012925222019385545
1775428410091580400,2.758580322265625,-0.23653905762135982,0.0031827216893434524,-0.1411445189689286
1775428410101629400,2.76862939453125,-0.2763926368430257,0.11655892550051211,-0.024385613916907457
1775428410111679500,2.778679443359375,-0.2433931612998247,0.23070026846528052,0.10082591605139896
1775428410121728500,2.788728515625,-0.11290332560241222,0.22399171073734758,0.06731894764378667
1775428410131777500,2.798777587890625,0.05624971048831939,0.20436112759411335,0.03689105788795277
1775428410141827300,2.808827392578125,0.14191022437810896,0.1754062512665987,0.03294096855530515
1775428410151876400,2.81887646484375,0.14752251130193472,0.1125818385630846,-0.006572217997163534
1775428410161926400,2.828926513671875,0.1611404100269079,0.09424012618660926,-0.121712399273552
1775428410171975400,2.838975341796875,0.20956454145610331,0.07588555432856083,-0.14280759334294124
1775428410182025500,2.849025390625,0.22129940291345118,0.10367080235481262,0.004222513065859675
1775428410192074500,2.859074462890625,0.0774818836092949,0.11149930402338504,0.0939663507465273
1775428410202124300,2.869124267578125,-0.014151274949312209,0.12239070039391517,0.07516447351239622
1775428410212173600,2.879173583984375,-0.05990794073492288,0.1100415064305067,-0.05719906536871567
1775428410222223600,2.8892236328125,-0.08514671914875507,0.02072773073017597,-0.18129432292450218
1775428410232272400,2.8992724609375,-0.0029079964011907576,-0.09230652777552605,-0.31875502054784444
1775428410242321400,2.9093212890625,0.013441080853343008,-0.12910218073129653,-0.3645523106047883
1775428410252371500,2.919371337890625,-0.02531272043287754,-0.1170125144869089,-0.23454819433139637
1775428410262420500,2.92942041015625,0.04768588028252124,-0.12271861717402935,-0.14983858795827254
1775428410272470500,2.939470458984375,0.10781798516213893,-0.0925040961742401,-0.05777114790193736
1775428410282519300,2.949519287109375,0.16454875716567038,-0.15270868176817892,-0.10019806647663936
1775428410292569300,2.9595693359375,0.16991875976622103,-0.16637714163661002,-0.0493955702772364
1775428410302618600,2.96961865234375,0.13749562280625105,-0.16383973211348055,0.04494593392461538
1775428410312668400,2.97966845703125,0.09596884967535733,-0.11845686807632445,0.022479999491292982
1775428410322717400,2.989717529296875,0.001644260075688362,-0.07327507956922054,0.008773746629431842
1775428410332766500,2.999766357421875,-0.07486848624050617,-0.04166588934063911,-0.02464318714085966
1775428410342816300,3.009816162109375,-0.10320464614778757,-0.021365444111824033,-0.05612098780842498
1775428410352865500,3.019865478515625,-0.13793109161406755,0.039517186874151226,-0.07115565799614414
1775428410362915600,3.02991552734375,-0.12696107704937457,0.05733166050612926,-0.1077991891301237
1775428410372964400,3.03996435546875,-0.09056640610992908,0.054018005913496016,-0.1879873908223584
1775428410383014400,3.050014404296875,-0.07512099969685077,0.08143500514924526,-0.1066697832413949
1775428410393063400,3.0600634765625,-0.059871700377762314,0.08985621201395988,-0.04047364734876901
1775428410403113500,3.070113525390625,-0.014086977541446685,0.0827139390438795,-0.14077740268958733
1775428410413162500,3.08016259765625,0.010794365736842155,0.08229016067385674,-0.12289762700274585
1775428410423212500,3.090212646484375,0.07281973701715469,0.09993336939215659,-0.08266341443303972
1775428410433261300,3.10026123046875,0.07244330492019653,0.054421910539269445,-0.04995172458896413
1775428410443310600,3.110310546875,0.08058540258258581,0.001925415104627609,-0.07761109947953372
1775428410453360600,3.120360595703125,0.0338888255983591,-0.004372223734855652,-0.09763833552384749
1775428410463409400,3.130409423828125,-0.09863047010004519,0.015491583642363548,-0.035241555381566286
1775428410473459500,3.14045947265625,-0.10994330675303936,0.04128536559045314,-0.009895261472649871
1775428410483508200,3.15050830078125,-0.03882423617392778,0.018349895682930946,-0.06215617631943896
1775428410493558500,3.16055859375,0.007106032612919807,0.026214053186774253,-0.10563870489429682
1775428410503607600,3.170607666015625,0.04838613750636577,0.003091536274552345,-0.136815988245327
1775428410513657300,3.1806572265625,0.10224632250964641,-0.05678747062683105,-0.20415597867714239
1775428410523706400,3.190706298828125,0.0987526351749897,-0.09400982456207276,-0.14718814651472492
1775428410533756400,3.20075634765625,0.08829846117794513,-0.10867021807730197,-0.09208627262096851
1775428410543805400,3.210805419921875,0.12882833222597836,-0.13698796554505824,-0.05106350348945707
1775428410553854500,3.2208544921875,0.14797259315699338,-0.14834697942733763,-0.020708057915326206
1775428410563904500,3.230904541015625,0.12007365562319755,-0.16309680479168892,0.006142356946226209
1775428410573953300,3.240953369140625,0.06356149480640888,-0.1737497162312269,0.048354427193850275
1775428410584003300,3.25100341796875,0.03642389703392982,-0.1803507219314575,-0.05230806019045412
1775428410594052600,3.261052490234375,-0.018035422906279564,-0.19200784197747706,-0.13889005457302556
1775428410604102400,3.271102294921875,-0.08076251271516084,-0.13046177864670752,-0.03497464807368815
1775428410614151400,3.2811513671875,-0.1005079544097185,-0.03583762157857418,0.04309248807765543
1775428410624201500,3.291201416015625,-0.0829454097121954,0.014420739540457724,0.03435900039337575
1775428410634250500,3.30125048828125,-0.0663835664898157,0.06835048264861106,0.06699565223986283
1775428410644300500,3.311300537109375,-0.06263561213314534,0.13633388555049897,0.08890320387175306
1775428410654349300,3.321349365234375,-0.03682195644080639,0.18312544734179972,0.11371091565825045
1775428410664398300,3.3313984375,0.009754209034144878,0.2065285347610712,0.04789829919049516
1775428410674448400,3.341448486328125,-0.001433247673511505,0.2458241878390312,0.01678014388186857
1775428410684497400,3.351497314453125,-0.0664388038083911,0.3156698774814605,0.039184867913555355
1775428410694547500,3.36154736328125,-0.13179711890369653,0.3743576287716627,0.03563888413608074
1775428410704596500,3.371596435546875,-0.16971973006278276,0.3423538862675428,0.043702327071689064
1775428410714646300,3.381646240234375,-0.14642857858538627,0.27532442308962346,0.07642694946257397
1775428410724695600,3.391695556640625,-0.07837766340523958,0.22140227876603602,0.08385351926675066
1775428410734745600,3.40174560546875,0.0022118308305740355,0.14456804541051388,0.04997474013837054
1775428410744794400,3.41179443359375,0.1472714591503143,0.10365502026379107,0.019764365590736268
1775428410754844400,3.421844482421875,0.2714876214057207,0.09769581959843635,0.0477483510594815
1775428410764893400,3.4318935546875,0.3117404290780425,0.049696635583043096,0.05787342096632346
1775428410774942500,3.4419423828125,0.43825785401314493,-0.06652618983089924,0.00679632734293118
1775428410784992500,3.451992431640625,0.4293827659010887,-0.13305647131502626,-0.015206209096033126
1775428410795041500,3.46204150390625,0.3177013833090663,-0.13948504305779932,-0.07276437183441593
1775428410805091300,3.47209130859375,0.1989560536801815,-0.11895838785767554,-0.19067821907522156
1775428410815140600,3.482140625,0.03721650871634483,-0.009437690430879593,-0.010952551973238587
1775428410825190700,3.492190673828125,-0.04011749085485935,-0.11394611265361308,-0.058850778098497536
1775428410835239400,3.502239501953125,-0.052368485140800475,-0.16626549795567988,-0.14154016722301022
1775428410845289500,3.51228955078125,-0.01731879906952381,-0.20088789852559566,-0.12932696593049914
1775428410855338200,3.522338134765625,0.010469371566176415,-0.16133388677239416,-0.07917827573101967
1775428410865388300,3.53238818359375,0.048478491964936254,-0.13500176016390322,-0.012958749829651787
1775428410875437600,3.5424375,0.03824263689368963,-0.08198036407232284,0.014086383886402471
1775428410885486300,3.552486328125,0.02315583465993404,-0.03929273046851158,0.03481324696689844
1775428410895536400,3.562536376953125,-0.004341828596591949,-0.03216390150189399,-0.012080980614433065
1775428410905585400,3.57258544921875,-0.04764817862063646,-0.08459843761622905,0.011739482833538204
1775428410915635500,3.582635498046875,-0.07749941926598548,-0.06922317382991314,0.029258562848670407
1775428410925684500,3.5926845703125,-0.09344283832907677,-0.0387210680603981,-0.07035106361499056
1775428410935734500,3.602734619140625,-0.08699380832016468,0.00402677129805088,-0.040557170046912505
1775428410945783300,3.612783203125,-0.05588964500427246,0.09557692774832248,-0.0228178440103773
1775428410955833300,3.622833251953125,0.0018739771783351897,0.1266243924409151,-0.04489325388930738
1775428410965882600,3.632882568359375,0.012326397609710693,0.16158230857551098,-0.04212078436813317
1775428410975931400,3.642931396484375,0.0032438042268157,0.16391981161236763,-0.0389140059497673
1775428410985981400,3.6529814453125,0.05751432359665632,0.17615794641673563,-0.06579280665558762
1775428410996030200,3.6630302734375,0.06347323200106621,0.17332243072986603,-0.03921442280160263
1775428411006080500,3.67308056640625,-0.005315057542920112,0.14208558094501494,-0.015330447397055103
1775428411016130000,3.683130126953125,0.042249242186546326,0.06649754825830459,-0.0583538157612551
1775428411026180000,3.69318017578125,0.10983517020344734,0.0013759645283222197,-0.026178032025322318
1775428411036228900,3.703228759765625,0.10311433751583099,-0.030340777727961538,0.06392545101428404
1775428411046279000,3.71327880859375,0.06127484517395496,-0.05048574013411999,0.06329445050121285
1775428411056328000,3.723327880859375,0.02678103941977024,-0.058624622926115984,0.034301315389387306
1775428411066378000,3.7333779296875,0.0008919804036617279,-0.06673603318929672,0.045220275620277965
1775428411076427000,3.743427001953125,-0.02735211730599403,-0.07686872014701367,0.06647392078754492
1775428411086475800,3.753475830078125,-0.04974047472476959,-0.07242109308838844,0.05303839289215393
1775428411096525800,3.76352587890625,-0.11016863994151353,-0.05889934821426868,-0.000011041983822360635
1775428411106575000,3.7735751953125,-0.12442162169963121,-0.0270703777551651,0.03152938472433015
1775428411116625000,3.783625,-0.07979922064095735,0.0062134676873683925,0.035524710571346804
1775428411126674000,3.793673828125,-0.003349602688848972,0.014906477230787276,0.03989074202743359
1775428411136724000,3.803723876953125,0.08110942645668982,0.004330722680687904,0.020425185853336005
1775428411146772700,3.813772705078125,0.1082242278754711,-0.0003197334736585617,0.01403442537030205
1775428411156823000,3.823822998046875,0.08912672869563103,-0.026018822875618932,0.003545317057194188
1775428411166872000,3.8338720703125,0.006537000553309917,-0.011634908214211464,-0.003999591030180454
1775428411176921900,3.843921875,-0.09688245738893747,0.0413134226411581,0.028489030647743493
1775428411186971000,3.853970947265625,-0.15642857907414434,0.0764531250834465,-0.030248176674218846
1775428411197020200,3.864020263671875,-0.20688480085283517,0.08965396744012832,-0.13097719908924774
1775428411207070000,3.874070068359375,-0.18962533075511454,0.1786865881115198,0.019197918213857336
1775428411217119000,3.884118896484375,-0.09983400067090988,0.20159400096833704,0.05358578850869089
1775428411227169000,3.8941689453125,-0.04298866237699985,0.18894027110040187,-0.006038622577115893
1775428411237217800,3.9042177734375,-0.06034194823801517,0.16505436860024927,-0.03712904049544595
1775428411247267800,3.914267822265625,-0.03979454251080751,0.15181845493018625,0.03573922097170725
1775428411257316900,3.92431689453125,0.09214403069019317,0.10183481909930706,0.07254679269413464
1775428411267367000,3.934366943359375,0.13439619548618792,0.0211795661509037,-0.09782751055355184
1775428411277416000,3.944416015625,-0.01357435184419155,-0.12043489015102386,-0.2740169389539398
1775428411287466000,3.954466064453125,-0.07490355755388736,-0.08960545212328433,-0.09571697553982958
1775428411297515000,3.964514892578125,-0.05039221663177013,-0.053418870976567265,0.07597071186136455
1775428411307564000,3.97456396484375,-0.01341185475885868,-0.016696867778897284,0.16162923472346738
1775428411317613800,3.98461376953125,0.1543219621837139,-0.11995908933281897,0.0549242157719098
1775428411327662800,3.994662841796875,0.11523849055171012,-0.12947685926258562,-0.06925527686807327
1775428411337713000,4.004712890625,-0.029990941376984118,-0.13078794186115264,-0.03914955913815647
1775428411347762000,4.014761962890625,-0.09356967957913875,-0.13596797484755516,0.05827509710239246
1775428411357812000,4.02481201171875,-0.10413403595238924,-0.17104805605709553,0.00828976250477135
1775428411367861000,4.034861083984375,-0.06986614790856838,-0.154892455548048,-0.03765892785475589
1775428411377910800,4.044910888671875,-0.06188625507056713,-0.18733575851321219,-0.13712985823377966
1775428411387960000,4.0549599609375,-0.05618249047100544,-0.18054361415505407,-0.16055322125609964
1775428411398010000,4.065010009765625,-0.052557870233058926,-0.11087971082031726,-0.017770725821796805
1775428411408059000,4.075058837890625,-0.04411562058031559,-0.05240297193229198,0.05356774139534682
1775428411418108000,4.08510791015625,-0.06590659662783145,-0.028046529310941693,0.06428062112750485
1775428411428158000,4.095157958984375,-0.11407353842556477,-0.01582183851003647,0.0634087701964192
1775428411438207000,4.10520703125,-0.1369499716222286,0.0009551087677478789,0.05469528412055224
1775428411448257000,4.115257080078125,-0.12981763552427292,-0.008693009543418884,0.019053733103349804
1775428411458305800,4.125305908203125,-0.1818155337870121,0.004284545451402664,0.05625383867416531
1775428411468355800,4.13535595703125,-0.14449293434768914,0.017412322571873664,0.0717008707887493
1775428411478405000,4.145405029296875,-0.09010434155613184,0.057387190085649485,0.013908698365092276
1775428411488455200,4.155455078125,-0.07288695703446865,0.10515373438894748,-0.01082552806008607
1775428411498504000,4.16550390625,-0.013133330078423022,0.11877835511565207,0.002133760625682771
1775428411508553000,4.175552978515625,0.01822773060798645,0.06958557740151881,0.009956462741130963
1775428411518602800,4.185602783203125,0.03291793473958969,-0.003358662778139114,-0.0650068439096678
1775428411528652000,4.195652099609375,0.09021101680099963,-0.03606967676877975,-0.1338381780109368
1775428411538702000,4.2057021484375,0.0258916893646121,-0.08648878140747547,-0.14656726553686894
1775428411548750800,4.215750732421875,-0.08368658346831798,-0.09219605313837528,-0.06058519154251553
1775428411558801000,4.22580078125,-0.12305413273870944,-0.050723640543222426,-0.014069414485292508
1775428411568850000,4.235849853515625,-0.13403554548025132,-0.04464578193426132,-0.016869064274337143
1775428411578900000,4.24589990234375,-0.10081833553314208,-0.1116881045937538,-0.016378860471444205
1775428411588949000,4.255948974609375,-0.05024257902801037,-0.1319523094654083,0.017023916909331454
1775428411598999000,4.2659990234375,-0.026224574580788612,-0.12689561059772966,0.012758989473851397
1775428411609047800,4.2760478515625,-0.06221358732879161,-0.14192308385968208,0.0019176427901256828
1775428411619097000,4.28609716796875,-0.09406126248836517,-0.14464870943129063,-0.02550195939466357
1775428411629147100,4.296147216796875,-0.12711889795958994,-0.14909867457747458,-0.06416426473883911
1775428411639196000,4.30619580078125,-0.14039631268382072,-0.11087094299197196,-0.05669324387158267
1775428411649246000,4.316245849609375,-0.08191986605674027,-0.11849252391159534,-0.019801656260667367
1775428411659294700,4.326294677734375,-0.0004021510601043701,-0.16301614077091217,-0.028759819546295327
1775428411669345000,4.336344970703125,-0.013060849364101885,-0.1644955656737089,-0.04419678692459129
1775428411679394000,4.34639404296875,-0.08288461943566798,-0.1294657533466816,-0.019285970956645904
1775428411689443800,4.35644384765625,-0.12445230909883975,-0.1235439620822668,-0.07459795307028107
1775428411699492900,4.366492919921875,-0.17927403261065483,-0.04646598309874534,-0.01892417930639349
1775428411709543000,4.37654296875,-0.19782851095497608,0.043108489364385605,0.036184361790167166
1775428411719592000,4.386592041015625,-0.17322481557428837,0.10155600215792655,0.07879015319626778
1775428411729641000,4.396640869140625,-0.10673194349110125,0.0676478873372078,0.08187036435920744
1775428411739691000,4.40669091796875,-0.08493687579035758,0.06761106245815754,0.026952596594393252
1775428411749739800,4.41673974609375,-0.08506810095459222,0.10100538253784179,0.06319790392471478
1775428411759789800,4.426789794921875,-0.10012859970331191,0.09762743053734302,0.04116925579695962
1775428411769839000,4.436839111328125,-0.12726619747579096,0.1360702661782503,-0.04033467726949602
1775428411779889000,4.446888916015625,-0.19346505504846573,0.1562783569484949,-0.03634337001047097
1775428411789938000,4.45693798828125,-0.1450064368277788,0.14994564679563044,-0.03215601045638323
1775428411799988000,4.466988037109375,-0.02178922248184681,0.07929039433598518,-0.10999451635046861
1775428411810037000,4.477037109375,-0.043831250680983064,0.08864391361474991,-0.0648776097731199
1775428411820087000,4.487087158203125,-0.13922726890444756,0.15026654931306838,0.025730288257822392
1775428411830136000,4.497135986328125,-0.11966945873647927,0.1344020407050848,0.054439135668706146
1775428411840184800,4.507184814453125,0.013336159174144267,0.060842883497476574,0.14893303568698465
1775428411850235000,4.51723486328125,0.07134177341908216,-0.04671498942375183,0.02860337774241343
1775428411860284000,4.527283935546875,0.05243833550661802,-0.06867255420982837,-0.023537216926645486
1775428411870334000,4.537333984375,-0.09286649974584579,-0.009615969607234001,0.04211988018583506
1775428411880383000,4.547383056640625,-0.14093641090989112,0.050119244909286494,0.053404641521815205
1775428411890432800,4.557432861328125,-0.1866121204137802,0.05953998420536518,-0.015189075298141686
1775428411900482000,4.56748193359375,-0.2282920382797718,0.057789925667643544,-0.14593414613194763
1775428411910532000,4.577531982421875,-0.16480302418768406,0.02231295409500599,-0.20126663217749446
1775428411920580900,4.587580810546875,-0.049887189719080925,-0.05998597440719604,-0.05306435845047235
1775428411930631000,4.597630859375,0.09932283627837896,-0.11430793170332908,-0.0023958821605890987
1775428411940680000,4.607679931640625,0.17451017920970915,-0.1926554922312498,0.020039255275670437
1775428411950729000,4.61772900390625,0.1914154290422797,-0.24947277347445487,0.04701749776797369
1775428411960779000,4.627779052734375,0.19714929651916027,-0.24952479592263696,0.03035274216039106
1775428411970828000,4.637828125,0.12491875756680965,-0.19878537328839302,0.05314199026394635
1775428411980877800,4.6478779296875,0.03921557357907295,-0.20372867490947244,0.08967325666248797
1775428411990927000,4.657927001953125,-0.006721417209506034,-0.14744856928288935,0.14383297260161487
1775428412000977200,4.66797705078125,-0.16083061342537402,-0.2369143206745386,-0.013067954958323389
1775428412011026400,4.6780263671875,-0.1380760530427098,-0.28021161060929295,-0.09809274649415164
1775428412021076200,4.688076171875,-0.09192132785022258,-0.1686141069084406,-0.0026574100404512134
1775428412031125200,4.698125244140625,-0.04066460334360599,-0.12722937259674072,-0.05655648401570506
1775428412041175300,4.70817529296875,-0.0390478157967329,-0.03319324454963207,-0.07741312008886597
1775428412051224300,4.718224365234375,-0.03896306012272834,0.06123334411978721,-0.052142677028290924
1775428412061273300,4.7282734375,-0.04238426674306393,0.12716215257942676,-0.10752462823875247
1775428412071323100,4.7383232421875,-0.07418430336862802,0.15052549251019953,-0.03228830419969745
1775428412081372200,4.7483720703125,-0.04812251813411712,0.1505313377290964,0.04824956944673322
1775428412091422200,4.758422119140625,-0.06039981590509414,0.10226678077578544,0.02871649186122231
1775428412101471200,4.76847119140625,-0.08708002529889344,0.11405658729076384,-0.0351684353464283
1775428412111521300,4.778521240234375,-0.09579290858656167,0.1827349867194891,-0.003173579401662573
1775428412121570300,4.7885703125,-0.017014555425941942,0.20743688177764413,0.04553684902247041
1775428412131620000,4.7986201171875,0.0344815307945013,0.21866379371285438,0.05386270575392991
1775428412141669400,4.80866943359375,0.05239946480095386,0.21429215449988842,0.027675659305090083
1775428412151719400,4.818719482421875,0.08640285668969154,0.20897768147885798,0.013736629733815788
1775428412161768200,4.828768310546875,0.09449205512106418,0.20450491997897624,0.031764481254993
1775428412171817200,4.838817138671875,0.07755611788928508,0.2184627181828022,0.06565213780957274
1775428412181867300,4.8488671875,0.06703355483114719,0.19536358214616775,0.014206576199969276
1775428412191916300,4.858916259765625,0.04953443075865507,0.12136369543373585,-0.06607605317691341
1775428412201966300,4.86896630859375,0.0799257696300745,0.07656359972059726,-0.016000720474589614
1775428412212015400,4.879015380859375,0.21542846505343913,-0.0065413844674825665,0.08072849171455018
1775428412222065200,4.889065185546875,0.34828386083841323,-0.10041618447303771,0.08908288955390453
1775428412232114400,4.899114501953125,0.4078758674919605,-0.1903296796321869,0.023892295708321035
1775428412242164500,4.90916455078125,0.39092064103782176,-0.22276947546601295,0.021317029259679838
1775428412252213200,4.919213134765625,0.2965978050038218,-0.17621406051814556,0.027370036555174736
1775428412262263300,4.92926318359375,0.16543372330665587,-0.226684018561244,-0.06180300636705942
1775428412272312000,4.93931201171875,-0.016529694518446922,-0.320437822535634,-0.17180972461197525
1775428412282361300,4.949361328125,-0.14736206004321575,-0.2938262944638729,-0.22402864521425217
1775428412292411400,4.959411376953125,-0.19379180278480052,-0.14916063389778136,-0.04348595350780524
1775428412302460200,4.969460205078125,-0.183378545320034,-0.09474924475252627,-0.03223150511169806
1775428412312510200,4.97951025390625,-0.15251052884757518,-0.055875031957030294,-0.10142904217685572
1775428412322559200,4.989559326171875,-0.1153612401485443,0.006396423038840294,-0.022773246816825122
1775428412332609300,4.999609375,-0.046917818519473076,0.10078151065409183,0.022182012058561667
1775428412342658300,5.009658203125,0.03462240056991577,0.15251578954458236,0.013578196902247146
1775428412352708400,5.019708251953125,0.04063800759762525,0.15108078830540178,-0.004648209398332983
1775428412362757000,5.029757080078125,-0.06380699400007725,0.16797463996112347,0.024662841689400375
1775428412372807200,5.03980712890625,-0.19724954202324152,0.16122282761335371,0.06392339605451561
1775428412382856400,5.0498564453125,-0.12013736850917339,0.10272972211241721,0.07621925239549018
1775428412392905200,5.0599052734375,0.07906126175522804,0.06060556761026382,0.06872449445961974
1775428412402955300,5.069955322265625,0.1938368109703064,-0.04601999289691448,0.0022684289891738442
1775428412413004000,5.080004150390625,0.20188655417412518,-0.023541034585237503,0.01694108833093196
1775428412423054300,5.090054443359375,0.1050546579286456,-0.009779051214456557,0.06989849754190072
1775428412433103400,5.100103271484375,0.15945698698461055,-0.041643092986941334,-0.04609990799902007
1775428412443153400,5.1101533203125,0.12819091110527514,-0.05497837537825107,-0.2159048138609156
1775428412453202200,5.1202021484375,0.10278788204044104,-0.02855097170174122,-0.13698485113936476
1775428412463252200,5.130252197265625,0.08398468963205814,0.014347089782357216,-0.07704524575769901
1775428412473301200,5.14030126953125,0.06741963153928518,0.02109071882367134,-0.03335886517381295
1775428412483351300,5.150351318359375,0.07925590754449367,0.018481413108110425,0.02215084973531775
1775428412493400300,5.160400390625,0.10383446848392486,-0.01088087497651577,0.004261630366696045
1775428412503449000,5.170448974609375,0.09651128598898649,-0.04136953674256801,-0.021443349919933824
1775428412513499100,5.1804990234375,0.07115940258949995,-0.04441548030972481,-0.02591550863161683
1775428412523548400,5.19054833984375,0.036008594231307506,-0.0460538951665163,-0.047728678244631735
1775428412533598200,5.20059814453125,-0.029634675285220145,-0.0738128397077322,-0.10497024018135853
1775428412543647200,5.210647216796875,-0.10817658934146165,-0.06633855830430985,-0.10223514352850616
1775428412553697300,5.220697265625,-0.16349837132990358,-0.031210546299815175,-0.05830673434967175
1775428412563746300,5.230746337890625,-0.17611235370934009,0.010250175857543944,-0.022893767923954873
1775428412573796400,5.24079638671875,-0.1807604717761278,0.050911856591701506,-0.028316560157667845
1775428412583845400,5.250845458984375,-0.13494973771572114,0.08918985705971717,0.0018603139791637659
1775428412593895200,5.260895263671875,-0.049474517264962194,0.09338146353065967,-0.01991549189868383
1775428412603944200,5.270944091796875,0.08360036648958921,0.0720218646377325,-0.0710765192121733
1775428412613994200,5.280994140625,0.10744769054502248,-0.004484451937675476,-0.13900243803947232
1775428412624043300,5.291043212890625,0.14406769467294214,-0.04552198024690151,-0.13772602489548735
1775428412634092300,5.30109228515625,0.12263678410947322,-0.06736848587393761,-0.08718617082079871
1775428412644142300,5.311142333984375,0.002765373060107231,-0.05879939497113228,-0.050793655305821445
1775428412654191400,5.32119140625,-0.0754378105610609,-0.031055063477158546,-0.02765831544464454
1775428412664241400,5.331241455078125,-0.046616205224394795,-0.00609071809053421,-0.03586041793227195
1775428412674290200,5.341290283203125,-0.019612170703709124,-0.020016367590427398,-0.057741035891463975
1775428412684340200,5.35134033203125,0.033490181669592854,-0.005545943689346313,-0.0051410070171114056
1775428412694389200,5.36138916015625,0.08242635427415371,-0.04265431585609913,0.01453000860121101
1775428412704439000,5.37143896484375,0.06982435459345579,-0.04496083923280239,-0.0001047298829536885
1775428412714488300,5.38148828125,0.06522738219201564,-0.06177344234585762,-0.010297302934899926
1775428412724538400,5.391538330078125,0.028753216275572775,-0.047402387166023255,-0.04396981890145689
1775428412734587100,5.401587158203125,-0.049584991902112956,-0.018931494963169097,-0.0888369519688189
1775428412744636400,5.411636474609375,-0.04712064761519432,0.03607026129066944,-0.10300673982235603
1775428412754686500,5.4216865234375,-0.017677695509791373,0.08919161062538623,-0.04053315898366272
1775428412764735200,5.4317353515625,0.07121054825484752,0.09337211118042468,0.032513107665209096
1775428412774785300,5.441785400390625,0.12110767484605311,0.004313187023997306,0.09597262166817672
1775428412784834300,5.451834228515625,0.07109247483313083,-0.02677227159142494,0.07546604114170186
1775428412794884000,5.461884033203125,0.04595569548904895,-0.02290858190059662,0.04808938304949552
1775428412804933400,5.471933349609375,0.009845686709880829,0.0009597849428653717,0.0002498191757593304
1775428412814983400,5.4819833984375,-0.02139876185953617,0.07379004335403443,-0.021498623771127313
1775428412825032200,5.4920322265625,-0.07629530417323112,0.1465788007110357,-0.012665018446929752
1775428412835082200,5.502082275390625,-0.08238193061053753,0.14505670571029186,-0.03867371265417896
1775428412845131300,5.51213134765625,0.01589490374624729,0.09976561160981655,-0.028427692381944505
1775428412855180300,5.52218017578125,0.09582125789821147,0.08699088571071624,0.06978577614873648
1775428412865230300,5.532230224609375,0.15655220545381307,0.06782558199167252,0.10351328283869661
1775428412875279000,5.542279052734375,0.18844108940660953,0.04166296673119068,0.0645759142796509
1775428412885329200,5.5523291015625,0.17289982140362262,0.006149170279502869,0.041894464798970146
1775428412895378400,5.56237841796875,0.15118249511420725,0.018890578430891036,-0.02715285927369259
1775428412905428200,5.57242822265625,0.11215426080077887,0.044430677878856656,-0.018293534986348822
1775428412915477200,5.582477294921875,0.017603168968856334,0.06634381900131701,0.015806942335003987
1775428412925527300,5.59252734375,0.03712970721572637,0.04039338518679142,-0.05758468541912734
1775428412935576300,5.602576416015625,0.07963467772901058,0.025898411366343497,-0.04913107412215322
1775428412945626400,5.61262646484375,0.01883241850286722,0.051557168757915495,0.005116621494526043
1775428412955675400,5.62267529296875,0.07545476169586181,0.048968321308493615,-0.08077475114222615
1775428412965724200,5.63272412109375,0.12313567354232072,-0.014396774142980575,-0.16819370780559256
1775428412975774200,5.642774169921875,0.11196049179434775,0.008224807509779929,-0.12188864175644702
1775428412985823500,5.652823486328125,0.13483575594723224,0.05634148042500019,-0.04765187754821963
1775428412995873300,5.662873291015625,0.12512684735953808,0.0564367574930191,0.008177223774697632
1775428413005922300,5.67292236328125,0.1661947708070278,0.02856616927087307,-0.030977988786110654
1775428413015971800,5.682971923828125,0.1438689572304487,-0.0339455242216587,-0.024164080120716244
1775428413026021000,5.693021240234375,0.12243570857942104,-0.06547755756080151,0.0028026363305747506
1775428413036071000,5.70307080078125,0.11335486876219511,-0.11741115841567516,-0.003137549107056111
1775428413046120000,5.713119873046875,0.12067162151634693,-0.15869067878723145,-0.08669369286242871
1775428413056170000,5.723169921875,0.0396945892676711,-0.06422434262931347,-0.02660761908162385
1775428413066218800,5.73321875,-0.017163900768756866,-0.012456745991110801,0.04092089792592451
1775428413076268000,5.74326806640625,-0.07922200527489184,0.03185819655358791,0.004106357606593519
1775428413086318000,5.753318115234375,-0.12942074516117572,0.07599310635626316,-0.021724596280418337
1775428413096366800,5.763366943359375,-0.15684709674715994,0.11752981635928153,0.037607334664836525
1775428413106417000,5.7734169921875,-0.10632862338721752,0.1378530579417944,0.13768804010581223
1775428413116466000,5.7834658203125,-0.0013975918382406233,0.09115852678418158,0.1461762843247503
1775428413126516000,5.793515869140625,0.0935606194898486,0.05005553202331066,-0.026827107051201164
1775428413136565000,5.80356494140625,0.07530366278737782,0.018527590337395667,-0.025444000396039335
1775428413146615000,5.813614990234375,0.03506634494513273,0.07353226920068263,0.06677254754109307
1775428413156663800,5.823663818359375,0.023677812707424164,0.08534545659124851,0.09292316183652728
1775428413166713900,5.8337138671875,0.08001783182770013,0.041570027750730515,0.031547285707201805
1775428413176763100,5.84376318359375,0.10979863758534192,0.01521393574476242,-0.03487997379386797
1775428413186812000,5.85381201171875,-0.0002893383353948593,0.043429391881823536,-0.040522180931922044
1775428413196862000,5.863862060546875,-0.006955225965380668,0.04355506408810615,0.016641283400449902
1775428413206911000,5.873910888671875,0.06903641908615828,0.002564297530055046,0.022006189700774847
1775428413216961000,5.8839609375,0.11772124727815389,-0.028998130947351455,-0.008970931435655803
1775428413227010000,5.894010009765625,0.1385626675158739,-0.09801321498453616,-0.05252784042097628
1775428413237059800,5.904059814453125,0.11905161909908056,-0.1251122343122959,0.010808649990521372
1775428413247108900,5.91410888671875,0.11850479887127875,-0.16134791529774664,0.040458084453456104
1775428413257159000,5.924158935546875,0.12247779415547846,-0.18184475988149643,0.06085556031595915
1775428413267208000,5.9342080078125,0.10275339524894953,-0.16875497668385506,0.038475824595056475
1775428413277258000,5.944258056640625,0.10332184278666973,-0.15485738423466683,-0.04324864675374701
1775428413287307000,5.95430712890625,0.01650046842396259,-0.1430026957899332,-0.00422044897293672
1775428413297356800,5.964356689453125,-0.08321428978145122,-0.09243395354747772,0.016924867848493157
1775428413307405800,5.97440576171875,-0.16410247470289469,-0.04286825086772442,-0.00910606559002772
1775428413317455000,5.984455078125,-0.2633487386137247,-0.037680034574866295,-0.03741270714187994
1775428413327505000,5.9945048828125,-0.3262210821121931,0.0037350948750972746,-0.013115246432460844
1775428413337554000,6.004553955078125,-0.24571225189715623,0.008181552889943123,-0.01033189932424575
1775428413347604000,6.01460400390625,-0.07598375400602816,-0.023185060754418372,-0.037246556794736534
1775428413357653000,6.024653076171875,0.09547229833006858,-0.0590858106970787,0.02744708384675905
1775428413367703000,6.034703125,0.13587737395465374,-0.06898351985514163,0.026383272273838517
1775428413377751800,6.044751708984375,0.05621902308911085,-0.06545359216332436,0.02036905348561704
1775428413387801900,6.0548017578125,-0.04870850132852792,-0.05999240414798259,0.05497715153554454
1775428413397851000,6.064850830078125,-0.13965338536202906,-0.03248305045366287,0.047844249182008206
1775428413407901000,6.07490087890625,-0.17568214559853076,-0.03658697864115238,0.03277914732340723
1775428413417950000,6.084949951171875,-0.16542203286886215,-0.0315887319624424,-0.021920831238571553
1775428413427999000,6.0949990234375,-0.1493283916801214,-0.03205108877718448,-0.04650487207071855
1775428413438048800,6.105048828125,-0.10550912369787692,-0.018736849173903464,0.030440621373243628
1775428413448098000,6.11509814453125,-0.02932341737896204,0.006772855135798454,0.059217839578911656
1775428413458148000,6.125148193359375,-0.041108547718822955,0.00639700756072998,0.070900185397733
1775428413468196900,6.13519677734375,-0.1261316404879093,0.024959084689617154,0.051759267201274634
1775428413478247000,6.145246826171875,-0.1286941844522953,0.04981763161420822,0.06738826828664168
1775428413488296000,6.1552958984375,-0.14936638560295104,0.09070026162266731,0.11507798449406399
1775428413498345700,6.165345703125,-0.14514555303752422,0.10045359387397766,0.06831168500818312
1775428413508395000,6.17539501953125,0.0028945523977279663,0.09732114106714725,0.0051386232637800275
1775428413518445000,6.185445068359375,-0.05835515833497047,0.1011795700609684,0.01716406516553834
1775428413528493800,6.195493896484375,-0.1771048718780279,0.09971768081486225,0.0298861658282578
1775428413538543000,6.205543212890625,-0.2668248902916908,0.1200368307441473,0.08443252473110333
1775428413548593200,6.21559326171875,-0.22637656004726886,0.12310557066500186,0.06838860443560406
1775428413558642000,6.225641845703125,-0.15158815330564976,0.08400982407331466,0.07735893308306112
1775428413568692000,6.23569189453125,-0.0629331337749958,0.056660629376769064,0.06743389752665534
1775428413578740700,6.24574072265625,-0.00542494765818119,0.03583411444723606,0.051314409510605036
1775428413588790800,6.255790771484375,0.0009299743264913558,0.017625673061609268,0.07892260220320894
1775428413598840000,6.265840087890625,0.04649462467133999,-0.03080781071782112,0.06277551379418
1775428413608890000,6.27589013671875,0.10676000054180622,-0.06868716725707054,0.06660303619308397
1775428413618939000,6.28593896484375,0.14058160612285137,-0.09408288979828357,0.10470388999590649
1775428413628989000,6.295989013671875,0.1452683026343584,-0.12218787129819392,0.12492787245502694
1775428413639038000,6.306037841796875,0.10969488494992255,-0.18055530459284783,0.09687597284922375
1775428413649087000,6.3160869140625,0.025349545311927794,-0.23393325903713702,0.07216503596808761
1775428413659137000,6.326136962890625,-0.0634556963443756,-0.22319033122658727,0.010584157052263617
1775428413669185800,6.336185791015625,-0.18800912773013115,-0.19176818800270556,0.01119377685058862
1775428413679235800,6.34623583984375,-0.2681891643822193,-0.1286065061688423,-0.020460220634099094
1775428413689285000,6.35628515625,-0.2789817765533924,-0.02618541161417961,-0.05252813268192112
1775428413699335000,6.3663349609375,-0.25198797116577626,0.044918753656744956,-0.01983450821749866
1775428413709384000,6.376384033203125,-0.21631576928198337,0.0931231048554182,-0.00660823915861547
1775428413719434000,6.38643408203125,-0.13741115939319132,0.10811609132587909,0.052799570034444326
1775428413729483000,6.39648291015625,-0.045104339356720445,0.1077151093095541,0.08977059782342985
1775428413739533000,6.406532958984375,-0.04616378528177738,0.07976268802285194,0.05200041901338845
1775428413749582000,6.41658203125,-0.07187076572924853,0.03256254543066025,0.071899005443044
1775428413759630800,6.426630859375,-0.06239362007081508,0.06806698953211307,0.10915800159424542
1775428413769681000,6.436680908203125,-0.07990063518881797,0.07296586748957634,0.04946313735442236
1775428413779730000,6.44672998046875,-0.10632745434343814,0.08429214814603328,0.020077943318244067
1775428413789780000,6.456780029296875,-0.12893266938328743,0.07671265280246733,0.07707094645453616
1775428413799829000,6.4668291015625,-0.13548983594179154,0.06759001967012881,0.07774365808432922
1775428413809878800,6.476878662109375,-0.1302057580590248,0.03836509422957897,0.09719097534883767
1775428413819927800,6.486927734375,-0.09232932412922382,0.031212299865484235,0.05243590608751401
1775428413829978000,6.49697802734375,-0.09683423433303832,0.04516249928474426,0.018723222507350146
1775428413840027000,6.50702685546875,-0.10037059176564216,0.07867664635181426,-0.033749910318013276
1775428413850077000,6.517076904296875,-0.10087474189549683,0.07423311094641685,-0.056872573360707605
1775428413860126000,6.5271259765625,-0.1505845292210579,0.07524900999069213,-0.049717495707981285
1775428413870175000,6.537175048828125,-0.13528700684607028,0.1252735623538494,-0.04260861355084926
1775428413880225000,6.54722509765625,-0.08203063295483588,0.08590601308345794,-0.046476139166578646
1775428413890274000,6.557274169921875,-0.005983750584721565,0.054063598620891565,-0.022762944618519396
1775428413900323800,6.56732373046875,0.07922901953756809,-0.020028058028221128,-0.033728483937494454
1775428413910372900,6.577372802734375,0.1460331495270133,-0.06751052469313144,-0.08205757576068863
1775428413920423000,6.5874228515625,0.1815495763272047,-0.07075871283411979,-0.0898078062949702
1775428413930472000,6.597471923828125,0.1645239149853587,-0.1024380456894636,-0.10878357879128306
1775428413940522000,6.60752197265625,0.14297376195639372,-0.14894436079859733,-0.10472177271246909
1775428413950571000,6.617571044921875,0.10719956100285052,-0.17977438334822654,-0.09972484120801091
1775428413960620800,6.627620849609375,0.054984805119037625,-0.15655658936798572,-0.011424991790577769
1775428413970670000,6.637670166015625,0.02696837868541479,-0.1176794539630413,0.014726828081253916
1775428413980718800,6.64771875,0.04781096796691418,-0.11851999644041061,0.010446739609260111
1775428413990769000,6.657768798828125,0.13803835138082504,-0.12489362312555312,-0.028570991576462982
1775428414000818000,6.66781787109375,0.2318471004128456,-0.1544657545685768,-0.08027282950207591
1775428414010867700,6.67786767578125,0.18939269104301928,-0.132031219920516,-0.029508473355975
1775428414020916700,6.687916748046875,0.08341098139733076,-0.1315390524893999,-0.018024846713338046
1775428414030966800,6.697966796875,0.07816051352322101,-0.15038929890990257,-0.0851644740011543
1775428414041015600,6.708015625,0.03904810805767774,-0.13312778298556804,-0.1069164332125336
1775428414051065600,6.718065673828125,0.050719548889994616,-0.06864800429046154,-0.08711299598673358
1775428414061115000,6.728114990234375,0.09249912773817777,-0.0019406126737594603,-0.06583212488582357
1775428414071164700,6.73816455078125,-0.0019517185896635054,0.06609130554497242,-0.05656952616036869
1775428414081213700,6.748213623046875,-0.02976385462284088,0.1133615907639265,-0.11297168726404197
1775428414091263700,6.758263671875,-0.0737953040510416,0.1904728874951601,-0.12246543699740431
1775428414101312500,6.7683125,-0.10376461811810732,0.2656692905157804,-0.05599834780944511
1775428414111361800,6.77836181640625,-0.04109831858575344,0.30962709018588064,-0.018575128406705332
1775428414121411800,6.788411865234375,0.023388474372029303,0.28668343697190285,-0.05295738181150518
1775428414131460600,6.798460693359375,0.04459872792214155,0.25613047779798503,-0.10033079861137084
1775428414141510700,6.8085107421875,0.049911155116558074,0.18773732505142687,-0.12874792393352835
1775428414151559700,6.8185595703125,0.04730360296666622,0.16875848381519318,-0.11802766461251303
1775428414161609700,6.828609619140625,-0.0027677111476659775,0.14204641797840595,-0.09143506957008503
1775428414171658800,6.83865869140625,-0.04809387656152248,0.09819207868278026,-0.03845335703492164
1775428414181708500,6.84870849609375,-0.014903554621338843,0.04914017074406147,-0.03483961438401602
1775428414191757600,6.858757568359375,0.06664601681828498,0.005132102191448211,-0.05428128735902719
1775428414201807600,6.8688076171875,0.1247705812677741,-0.04006079223155975,-0.07180182867888361
1775428414211856600,6.878856689453125,0.12172025378644466,-0.09521627774238586,-0.0604085015350487
1775428414221905700,6.88890576171875,0.08618716811239718,-0.16445932531654833,-0.055305945098493244
1775428414231955700,6.898955810546875,0.06875730988383293,-0.20832593957185744,-0.08367527662301436
1775428414242004700,6.909004638671875,0.05561842684745788,-0.22226561759710312,-0.09932612421400845
1775428414252054800,6.9190546875,-0.004663315635919571,-0.18815759629011153,-0.07486296068201773
1775428414262103800,6.929103759765625,-0.059687868243455885,-0.1683300292700529,-0.05644564405237324
1775428414272153600,6.939153564453125,0.014403203883767127,-0.12783669084012508,-0.04955989399347454
1775428414282202600,6.94920263671875,0.03794190038144588,-0.10361761086285114,-0.04814426417504437
1775428414292252700,6.959252685546875,-0.04801262801885604,-0.10227964025735854,-0.051686329829227176
1775428414302301700,6.9693017578125,-0.08955050706565379,-0.0822305394411087,-0.09196372395353392
1775428414312351700,6.979351806640625,-0.1265980889558792,-0.04755319381356239,-0.05151702854377217
1775428414322400800,6.98940087890625,-0.17103636561930177,-0.021616788524389266,-0.024632136023882777
1775428414332450600,6.999450439453125,-0.15758943954706192,0.015191139391064644,-0.047409785021189595
1775428414342499800,7.009499755859375,-0.1072311251848936,0.06867021612226963,-0.004595584161952137
1775428414352548600,7.019548583984375,-0.027338088780641555,0.07566694314181804,0.0008606536836363375
1775428414362598700,7.0295986328125,0.07400748549699783,0.07044424005746841,-0.03874392834617756
1775428414372647700,7.039647705078125,0.11447042878866195,0.05119067353308201,-0.08108129634074866
1775428414382697500,7.049697509765625,0.05588964500427246,0.061547232374548906,-0.03521926135136746
1775428414392746800,7.059746826171875,0.031384733822941775,0.06946224328279495,-0.04718731964323669
1775428414402796800,7.069796875,0.010882336281239986,0.05084580561816692,-0.06536161216408945
1775428414412845600,7.079845458984375,-0.009724106156826019,0.041949382457137106,-0.08822643712135031
1775428414422895600,7.0898955078125,0.004308510848879814,0.04458090000450611,-0.06517753343461082
1775428414432945000,7.09994482421875,0.019813538494706153,0.026439678636193273,-0.08848242117641493
1775428414442994700,7.10999462890625,0.03227612970471382,-0.019257073655724523,-0.21051862731054424
1775428414453043700,7.120043701171875,0.02517974170297384,-0.03752455175220966,-0.19403001372115686
1775428414463092700,7.1300927734375,0.045587446698546405,0.0004921674311161041,-0.09603237989824265
1775428414473142500,7.140142578125,0.07086451129615307,0.014806523987650871,-0.10714320943942293
1775428414483191800,7.15019189453125,0.05142915846407413,0.008031915286183357,-0.13235040540490298
1775428414493241900,7.160241943359375,0.02571779410243034,0.007783493483066559,-0.09297584187183529
1775428414503290600,7.17029052734375,0.011044833366572856,-0.010502104791998862,-0.12090630705505609
1775428414513340700,7.180340576171875,-0.0018149404674768447,-0.028095629149675366,-0.10839384882133453
1775428414523389700,7.1903896484375,-0.023022271408140657,-0.03517418923377991,-0.13605302278250456
1775428414533439700,7.200439697265625,-0.04166413577497005,-0.04437339473366737,-0.14291291688093916
1775428414543488800,7.21048876953125,-0.0024497312396764754,-0.020051438903808592,-0.09429549136934802
1775428414553538800,7.220538818359375,0.02820259665548801,-0.014864391654729843,-0.055085032356809824
1775428414563587600,7.230587646484375,-0.015192892956733702,-0.03557926290333271,-0.012067399613652378
1775428414573636900,7.240636962890625,-0.09074643885195255,-0.020054946035146713,-0.007571476433891802
1775428414583686700,7.250686767578125,-0.11583499514013527,-0.02106324629485607,-0.031152276773937046
1775428414593735700,7.260735595703125,-0.02412234160453081,0.009188684105873108,-0.03710249041523784
1775428414603785700,7.27078564453125,0.08362462414801121,-0.012055179452896117,-0.03273242210485041
1775428414613834500,7.28083447265625,0.19257891986370085,-0.036233342897892,-0.13606924326494335
1775428414623884800,7.290884765625,0.12645195848345755,-0.0009130231916904449,-0.1117684032883495
1775428414633933800,7.300933837890625,0.08824468516409396,0.03815700443685054,-0.09342667264556512
1775428414643983600,7.310983642578125,0.024629998865723608,0.020954525223374366,-0.06556474265391006
1775428414654032600,7.32103271484375,0.011036942321062088,-0.008676058408617973,-0.08981829115636646
1775428414664082700,7.331082763671875,-0.008153495839238167,0.004527706557512283,-0.07394170851809903
1775428414674131700,7.341131591796875,0.020925883650779725,0.04426175105273723,-0.031274953305535015
1775428414684181800,7.351181640625,0.0698304920732975,0.0669505527228117,0.06907486966671422
1775428414694230800,7.361230712890625,0.09457856436073779,0.07998013016581534,0.05012101674126461
1775428414704279600,7.371279541015625,0.06791852097213268,0.10107727873027324,0.0049938444982282814
1775428414714329600,7.38132958984375,0.01867284402698278,0.1311854167461395,0.0574956371624954
1775428414724378600,7.391378662109375,-0.005531038381159305,0.11699205622076987,0.12278158114133401
1775428414734428700,7.4014287109375,0.02555588153898716,0.09554653261005878,0.025867997961770743
1775428414744477700,7.411477783203125,0.020485154145956037,0.05809563061594963,-0.09111187463086098
1775428414754527700,7.42152783203125,-0.001664133819937706,0.019794249272346496,-0.06315548955509438
1775428414764576800,7.43157666015625,0.020477555361390114,-0.043530514168739314,-0.0755903707742691
1775428414774626800,7.441626708984375,0.03545651330649852,-0.06447393347620964,-0.05822075483296066
1775428414784675600,7.451675537109375,0.014348258826136589,-0.062146951833367346,-0.05209399731466546
1775428414794725600,7.4617255859375,0.015850772343575955,-0.05397767390310764,-0.054677967659570274
1775428414804774700,7.471774658203125,0.020091770914196967,-0.06233925953507423,-0.026414452863391488
1775428414814823700,7.48182373046875,-0.0001765256106853485,-0.056232759353518486,0.009713822224829345
1775428414824873700,7.491873779296875,0.02969020486474037,-0.03800035257041454,-0.00969758347608149
1775428414834922800,7.5019228515625,0.08038900322765112,-0.040734745970368386,-0.055303059021662916
1775428414844972500,7.51197265625,0.04000993882715702,-0.07209376083016396,-0.054959981205035
1775428414855021800,7.522021728515625,0.014417816931009292,-0.08840601320564746,-0.018467293251212685
1775428414865071900,7.53207177734375,0.020131518402695656,-0.11308452738821506,0.000012366291228681802
1775428414875120600,7.54212060546875,0.030883798563480374,-0.12350538363754748,-0.01760632904032245
1775428414885170700,7.552170654296875,0.014565700969099997,-0.08866028022766113,0.09148741167867555
1775428414895219700,7.5622197265625,0.06976561014354228,-0.07126666235625743,0.08606750552179292
1775428414905269500,7.57226953125,0.10777502280324697,-0.06706862614452838,0.0012565393997356295
1775428414915318800,7.58231884765625,0.10747136368155479,-0.034982466053962706,0.00669418214270845
1775428414925367600,7.592367431640625,0.10879589028358459,0.019752748218178746,0.03306159926028922
1775428414935417600,7.60241748046875,0.03882920460999012,0.037356793969869614,0.0677938351465389
1775428414945467000,7.612466796875,-0.0195174781575799,0.04824585225284099,0.08928367282301188
1775428414955516700,7.6225166015625,-0.032202772207558156,0.04660509930849075,0.10073743405034764
1775428414965565700,7.632565673828125,-0.021786299872398374,0.06056348203420639,0.03363245795080438
1775428414975615700,7.64261572265625,-0.06921382147967815,0.11365677431821822,0.040166481095738706
1775428414985664500,7.65266455078125,-0.11812135251164435,0.15373510220646858,0.08788757882211357
1775428414995714600,7.662714599609375,-0.08084756065011024,0.17180968807935715,0.1143128270741552
1775428415005763800,7.672763916015625,-0.032271453529596324,0.15896131242215633,0.044931704469863325
1775428415015814400,7.682814453125,0.07564531583189964,0.12822013719975947,-0.011263097493443638
1775428415025863400,7.692863525390625,0.15341536873281,0.09360416637063027,0.026281839459668842
1775428415035912400,7.702912353515625,0.16331716954410075,0.047451487004756925,0.04186683700652793
1775428415045962200,7.712962158203125,0.14492285019755363,0.004251812225580215,0.014947686024010181
1775428415056011500,7.723011474609375,0.09177169024646281,-0.023051205241680143,0.01873688570652157
1775428415066061600,7.7330615234375,0.01402794083058834,-0.035495676273107526,0.01551900137225166
1775428415076110300,7.7431103515625,-0.048532267978787416,0.009370470413565635,0.014012688462529331
1775428415086160400,7.753160400390625,-0.06244681156277656,0.033656185886263845,0.013995408534165471
1775428415096209400,7.76320947265625,0.0009609539866447448,0.03526362108290195,-0.007652505780849605
1775428415106259500,7.773259521484375,0.09014204321801662,0.05461655632853508,-0.06576532499361783
1775428415116308500,7.78330859375,0.12861352043151855,0.05140168593525886,-0.043751408644113685
1775428415126358500,7.793358642578125,0.022379005068540573,0.049265258428454396,0.004656611900497228
1775428415136407300,7.8034072265625,-0.169256788726151,0.01939794343113899,0.0743353657444939
1775428415146457300,7.813457275390625,-0.26164514956623314,0.006901449951529502,0.04786331920865923
1775428415156506400,7.82350634765625,-0.22395430133640765,0.021812018835544584,0.08715827816687524
1775428415166555400,7.833555419921875,-0.11864742221236228,-0.011984452304244041,0.09236194775719195
1775428415176605400,7.84360546875,0.1173877775400877,-0.014202712875604628,0.03201411776766181
1775428415186654200,7.853654296875,0.11222440342754125,-0.013089783197641373,0.020443799222260712
1775428415196704500,7.86370458984375,0.1357961254119873,-0.01634557012319565,-0.011207312185596674
1775428415206753500,7.87375341796875,0.0629115064650774,-0.016790975803136824,0.0009236724498681724
1775428415216803300,7.88380322265625,-0.09063859456330538,-0.004070610439777374,0.03425612454079091
1775428415226852400,7.893852294921875,-0.11160656379014253,-0.013763152414560317,0.01777604131773114
1775428415236902400,7.90390234375,-0.05468026921451091,-0.04031272116601467,0.04016368635045364
1775428415246951400,7.913951416015625,0.006235387258231639,-0.026875731965899465,0.09127214322648942
1775428415257001500,7.92400146484375,0.044914369742572305,-0.05674538505077362,0.13879711559256538
1775428415267050500,7.934050537109375,0.0836591109395027,-0.09005611850023269,0.15263923326116055
1775428415277099300,7.944099365234375,0.10608487775921821,-0.11777765364050864,0.1257926543245092
1775428415287149300,7.9541494140625,0.10267682288140058,-0.12851181362271308,0.10179786635609343
1775428415297198300,7.9641982421875,0.04779986205101013,-0.14081658392250537,0.12052722634328529
1775428415307248400,7.974248291015625,-0.03677928634285926,-0.14587211374640463,0.14233095227451995
1775428415317297400,7.98429736328125,-0.06904518691450356,-0.1148643965423107,0.05339837617781013
1775428415327347500,7.994347412109375,-0.131928636328876,-0.087824998447299,-0.023168730674125254
1775428415337396500,8.004396484375,-0.19748335077911613,-0.03145253836214542,0.026128566860407588
1775428415347446500,8.014446533203126,-0.18282441856861115,0.02133329540789127,0.06828834066521376
1775428415357495300,8.024495361328125,-0.11045008723139763,0.05453647682964802,0.0860987591765821
1775428415367545300,8.03454541015625,-0.07832388739138842,0.054608957543969154,0.05940190917523577
1775428415377594400,8.044594482421875,-0.07408551916927099,0.05953121637701988,0.049771107325050974
1775428415387644400,8.05464453125,-0.12261048062443733,0.06755787096619606,0.05014584065526723
1775428415397693400,8.064693359375,-0.10093611669391393,0.06198503926992416,0.0977737436728552
1775428415407742500,8.074742431640624,-0.10199556261897086,0.06543254937529563,0.09664696813262999
1775428415417792300,8.084792236328125,-0.1162219486311078,0.07935118461251259,0.05815232923924923
1775428415427841500,8.094841552734374,-0.08094488354474305,0.06034428632557392,0.06218847115384414
1775428415437891600,8.1048916015625,-0.051693654619157314,0.06314999139606953,0.154954834993463
1775428415447940400,8.1149404296875,-0.000035948096215724944,0.03918400939702987,0.11927021201951428
1775428415457990400,8.124990478515626,-0.017089081966876984,0.009686696755886078,0.03550718404781073
1775428415468039400,8.135039306640625,-0.038408056588470935,-0.031463644278049464,0.03016087285010144
1775428415478089200,8.145089111328126,-0.0571928365573287,-0.039460488250851626,0.06704144587665796
1775428415488138500,8.155138427734375,0.0021203531548380852,-0.0934019217967987,0.07282118005556985
1775428415498188500,8.1651884765625,0.04255202452540397,-0.1674362953007221,0.021768362356908617
1775428415508237300,8.1752373046875,0.06366875457316637,-0.19248364279568195,0.05872793717011809
1775428415518286600,8.18528662109375,0.052473406819999215,-0.1767658491820097,0.09690008437717333
1775428415528336400,8.19533642578125,0.0095484573289752,-0.1431160930365324,0.11991561551727353
1775428415538385400,8.205385498046875,-0.04344780432134866,-0.09721300451755523,0.0783522001704201
1775428415548435500,8.215435546875,-0.1625526149123907,-0.0345469972461462,0.056289476243127134
1775428415558484200,8.225484130859375,-0.22860212714225053,0.013397241711616515,0.05959200665354728
1775428415568534300,8.2355341796875,-0.23238223020285367,0.02157645651400089,0.04704708918863907
1775428415578583600,8.24558349609375,-0.19405805250555275,0.0461193616181612,0.01615711661269888
1775428415588633300,8.25563330078125,-0.1334630062893033,0.06143032799661159,-0.018192019973788408
1775428415598682400,8.265682373046875,-0.0960401613458991,0.04386018451452255,-0.06158087891582399
1775428415608732400,8.275732421875,-0.08304887008666992,0.053205520486831664,-0.058705962800327686
1775428415618781400,8.285781494140625,-0.13334259478002786,0.06866086377203465,-0.07797425196981057
1775428415628830500,8.29583056640625,-0.16506372095048427,0.04206570231318474,-0.06918969168541952
1775428415638880500,8.305880615234376,-0.0968792425185442,0.032465514796972274,-0.05243375066304579
1775428415648929300,8.31592919921875,0.037767128336429596,0.00864917040169239,-0.034908597100153566
1775428415658979300,8.325979248046876,0.15152444041967392,-0.01248772565126419,-0.030633294401131567
1775428415669028400,8.3360283203125,0.2307581361323595,-0.06640811640918254,-0.0429913109918125
1775428415679078400,8.346078369140624,0.3117424749046564,-0.12491408139169216,0.003588873071130365
1775428415689127400,8.35612744140625,0.2366395953863859,-0.14591186123490332,0.03863614798961207
1775428415699177500,8.366177490234374,0.051772272813320155,-0.17767653428614139,0.027666864077281205
1775428415709226500,8.3762265625,-0.09534428803622721,-0.19656243654191494,-0.015445662141405045
1775428415719276500,8.386276611328125,-0.0920274185732007,-0.15635492931604383,-0.024806999400444327
1775428415729325300,8.3963251953125,-0.06078560035228729,-0.10582885717153549,0.01856083501987159
1775428415739374300,8.406374267578125,0.09031184682697058,-0.044186932250857354,0.05238196567688137
1775428415749424400,8.41642431640625,0.19404110137075184,-0.03218786689937114,0.003666413553059101
1775428415759473400,8.426473388671875,0.0897051131054759,-0.009977788656949996,-0.01873350643934682
1775428415769523500,8.4365234375,-0.023990531918406485,0.01895838297009468,-0.048941908225603396
1775428415779572500,8.446572509765625,-0.1280339669778943,0.05381751490533351,-0.059130435290094464
1775428415789622300,8.456622314453124,-0.1609492713689804,0.06142682086527347,-0.0867415505921468
1775428415799671300,8.46667138671875,-0.17533727768361568,0.06973346143960953,-0.12573922537053003
1775428415809721300,8.476721435546875,-0.1439119195893407,0.08454349255859851,-0.08150527564017102
1775428415819770400,8.486770263671875,-0.08932020544111728,0.1363666187763214,-0.05038516583647579
1775428415829820400,8.4968203125,-0.053068157842755315,0.16627485030591488,-0.08067388458363711
1775428415839869400,8.506869384765626,-0.013425298762321472,0.13687339925467967,-0.10983478661095723
1775428415849919200,8.516919189453125,0.0392091438382864,0.10078560230731963,-0.13478398922737686
1775428415859968500,8.526968505859376,0.1097059908658266,0.03060907327532768,-0.19543452849052845
1775428415870017300,8.537017333984375,0.12951339188069105,-0.019962007054686544,-0.1972315131762065
1775428415880067300,8.5470673828125,0.1349193425774574,-0.05927285770177841,-0.157753744996991
1775428415890116400,8.557116455078125,0.11716799730956554,-0.0630249037116766,-0.11288047444978729
1775428415900166400,8.56716650390625,0.10287059188783168,-0.06415244643688202,-0.05044816633639857
1775428415910215400,8.57721533203125,0.08669599441736936,-0.062335167881846426,-0.06772743711313232
1775428415920265500,8.587265380859375,0.0124175830245018,-0.04376549196839332,-0.060545708915498105
1775428415930314200,8.597314208984375,-0.021483809794485567,-0.027031799310445782,-0.08277595316311344
1775428415940364300,8.6073642578125,-0.07652326771020888,-0.024295652344822883,-0.1218491591294296
1775428415950413600,8.61741357421875,-0.12101590490937232,-0.019914076259732245,-0.11359585617752745
1775428415960463400,8.62746337890625,-0.06448942330628633,-0.010946341428160667,-0.07911596935084089
1775428415970512400,8.637512451171874,-0.06945055284500122,0.013199088791012763,-0.0003211217131465673
1775428415980561400,8.6475615234375,-0.07500526436269282,0.040404491102695464,-0.0482850882846862
1775428415990611200,8.657611083984374,-0.04943360073268413,0.02623158884346485,-0.04822831659615039
1775428416000660500,8.667660400390625,-0.009979542222619056,0.003385550785064697,0.009781170106306672
1775428416010710500,8.67771044921875,0.03792670281231403,-0.007698737809062004,-0.06894433862222359
1775428416020758500,8.687758544921875,0.056065586093068116,-0.007373159116506576,-0.07379074660693295
1775428416030808600,8.69780859375,0.03937397901117801,0.004997662156820297,-0.07946731267231516
1775428416040857600,8.707857666015625,0.015521978780627249,0.02515489952266216,-0.04942344466485083
1775428416050907600,8.71790771484375,0.00580488688647747,0.04484627294242382,-0.08370935242255217
1775428416060956700,8.727956787109376,-0.041699207088351245,0.053205520486831664,-0.05777110223616473
1775428416071006500,8.73800634765625,-0.03547843287736177,0.015313888987898826,0.003156600867398083
1775428416081055700,8.7480556640625,0.048663493143022055,-0.04863982000648975,-0.04314951549451798
1775428416091104800,8.758104736328125,0.10319558605849742,-0.0770674575895071,-0.07164962465870194
1775428416101154600,8.768154541015624,0.14262509464919565,-0.10088380198478698,-0.04609847409375943
1775428416111203600,8.77820361328125,0.14440788641273974,-0.10713409455120562,-0.031904720842745156
1775428416121253600,8.788253662109375,0.10842851827591657,-0.14321312367022038,-0.013481513328431173
1775428416131302700,8.798302734375,0.06355944897979497,-0.15860475406944752,-0.0022104791237041355
1775428416141352700,8.808352783203125,0.026064415583014488,-0.13415011177062988,-0.010390296714287251
1775428416151401700,8.818401611328126,0.018886779038608074,-0.12184300338327884,-0.035322557329060505
1775428416161451500,8.828451416015625,0.0212950092241168,-0.08837327997982501,-0.04963482239320874
1775428416171500800,8.838500732421876,0.0032832594543695448,-0.03870937762260437,-0.034009100110316645
1775428416181550800,8.84855078125,-0.045288171491026874,-0.008364508241415023,0.00035720680668018754
1775428416191599600,8.858599609375,-0.08284604099094867,0.0019879589468240737,-0.018146600796328856
1775428416201649700,8.868649658203125,-0.11683686565905808,0.05149462491571903,-0.026644389161746947
1775428416211698400,8.878698486328124,-0.13550970968604087,0.07000877124965191,-0.03156081190905533
1775428416221747700,8.888747802734375,-0.13258359310626983,0.09503098430335521,0.010998765735141932
1775428416231797800,8.8987978515625,-0.0819233731880784,0.12052607556581496,0.035588231661077586
1775428416241846500,8.908846435546875,-0.017737316742539404,0.1327285545349121,0.008260225883033125
1775428416251896600,8.918896484375,0.04323182348310947,0.13595862249732016,0.005089550824509933
1775428416261945600,8.928945556640626,0.0580272415548563,0.1427630418151617,-0.02696970299282111
1775428416271995600,8.93899560546875,-0.019552549470961092,0.1342576637983322,-0.06520268614217639
1775428416282044700,8.949044677734374,-0.07260287939608097,0.12100070734024047,-0.11460569994035176
1775428416292094700,8.9590947265625,-0.1407242294639349,0.1327630413264036,-0.07737154596946202
1775428416302143500,8.9691435546875,-0.20277824231684208,0.1429635328233242,-0.053023725045984606
1775428416312193500,8.979193603515625,-0.047615737655758855,0.14257716385424135,-0.07527621765802614
1775428416322242800,8.989242919921875,0.03466156353652477,0.14139116894006729,-0.023821970418468116
1775428416332291600,8.99929150390625,0.07648059761226177,0.14863047254383563,-0.05325484865442849
1775428416342341600,9.009341552734375,0.054493222209811204,0.156369542363286,-0.05849731588517315
1775428416352390700,9.019390625,0.02630699216723442,0.16005378383398056,-0.05615225972952321
1775428416362440700,9.029440673828125,0.012212415841221808,0.14008300895094872,-0.03560900045447051
1775428416372489700,9.03948974609375,0.009394143550097942,0.08826631247401237,0.010182627046667038
1775428416382539800,9.049539794921875,0.009337737187743186,0.049077626901865005,0.04861321512735448
1775428416392588500,9.059588623046874,0.05988719020783901,-0.008690086933970451,0.0424762376091443
1775428416402638600,9.069638671875,0.14510405198335646,-0.08750117332041263,0.015163886057958006
1775428416412687600,9.0796875,0.18834288972914218,-0.1298439390093088,0.00038480719965882596
1775428416422737700,9.089737548828126,0.1599725352913141,-0.15160627348423003,-0.01166444483594969
1775428416432786700,9.09978662109375,0.1126838376328349,-0.16040566601157188,-0.00420705063524656
1775428416442835500,9.10983544921875,0.04601356315612793,-0.1565139192700386,0.05025005908156745
1775428416452885500,9.119885498046875,-0.004523322643339634,-0.16085165621340275,0.07507392741842195
1775428416462934800,9.129934814453126,-0.041540217134356495,-0.17817396241426467,0.07228108182949945
1775428416472984600,9.139984619140625,-0.051148880217969414,-0.17189970445036887,0.08180617654919624
1775428416483033600,9.15003369140625,-0.023733050025999545,-0.12011574119925499,0.012140610980335623
1775428416493083600,9.160083740234375,-0.00801788676083088,-0.09297755890488624,-0.0880440662917681
1775428416503132700,9.170132568359374,-0.024555764585733414,-0.03982113825678825,-0.15727377946032212
1775428416513182700,9.1801826171875,-0.02272328846156597,-0.0024088147073984146,-0.19099314850959925
1775428416523231700,9.190231689453125,0.05705576617419719,0.007428104174137115,-0.13899815458999945
1775428416533281500,9.200281494140626,0.17288988453149795,-0.014634674552083015,-0.11492292179651557
1775428416543330600,9.21033056640625,0.1252338148653507,-0.01272387249469757,-0.05372328815008513
1775428416553379600,9.220379638671876,0.08437894964665174,-0.0040092356413602825,0.005077367196371778
1775428416563429600,9.2304296875,0.08435556877106427,0.004324292939901352,-0.004048599537368864
1775428416573478700,9.240478759765624,0.0315361249923706,0.02390636076629162,0.0008351447830442339
1775428416583528700,9.25052880859375,-0.09267477656602859,0.06661211454868317,0.04235922363335266
1775428416593577700,9.26057763671875,-0.13603022642880677,0.1277969433516264,0.02001095162979327
1775428416603627800,9.270627685546875,-0.11529869630634784,0.15044599753320217,0.006154714104300365
1775428416613676500,9.280676513671875,-0.06581248860359191,0.16761866613030432,-0.02575220782868564
1775428416623726600,9.2907265625,-0.036732816852629184,0.18382921169698238,-0.04076256555905566
1775428416633775600,9.300775634765625,-0.011148586001992224,0.16649872218966483,-0.044528621827997265
1775428416643825700,9.31082568359375,0.05246025507748127,0.1340624334871769,-0.04919062228966504
1775428416653874700,9.320874755859375,0.05100479557216167,0.08605272807776927,-0.04664626243594102
1775428416663923700,9.330923828125,0.05751666168421506,0.017119477105140685,-0.0747520476534497
1775428416673973500,9.340973388671875,0.08650807062983512,-0.04268412647247314,-0.0660166146072559
1775428416684022800,9.351022705078124,0.1149041440308094,-0.04893266547322273,-0.05790693964343518
1775428416694072800,9.36107275390625,0.08364011397808789,-0.050960956430435175,-0.04615588510311208
1775428416704121600,9.37112158203125,0.011146832436323166,-0.034220834031701085,-0.038037679772963746
1775428416714171600,9.381171630859376,-0.043481706590950485,-0.015004676908254622,-0.07650875512766651
1775428416724220700,9.391220703125,-0.10668605852276086,-0.02019873842000961,-0.07509983817781321
1775428416734270500,9.4012705078125,-0.14879735354334114,-0.019961422532796858,-0.08968619834245183
1775428416744319700,9.41131982421875,-0.15074702630639075,-0.016424480578303337,-0.12644764763452113
1775428416754369800,9.421369873046874,-0.10462766468822955,-0.012798106774687767,-0.10498044191496446
1775428416764418600,9.43141845703125,-0.04308160135746002,-0.03155950586795807,-0.10475647869966924
1775428416774467600,9.441467529296874,0.03887888897061348,-0.08273848896324634,-0.09505048358826898
1775428416784518000,9.451517822265625,0.12165186472535133,-0.09674655604958533,-0.07788099332894198
1775428416794566700,9.461566650390624,0.12606588177531958,-0.0860994898289442,-0.09615923028145916
1775428416804616700,9.47161669921875,0.07827040363848209,-0.09202303465902804,-0.07780069463434629
1775428416814665500,9.48166552734375,0.04905483054816723,-0.049131987437605856,-0.049323308758623896
1775428416824715500,9.491715576171876,0.005030979904532432,-0.016597499057650567,-0.04307020318061113
1775428416834764800,9.501764892578125,-0.08171499113440513,0.00018996961414813993,-0.04510207433439791
1775428416844814600,9.511814697265624,-0.16529226900935173,-0.017261515924334524,-0.0765277794885449
1775428416854863600,9.521863525390625,-0.10961188284158706,-0.020456512573361396,-0.09788240081225522
1775428416864913700,9.53191357421875,-0.11084814663827419,-0.022260347124934195,-0.12407155701979063
1775428416874962700,9.541962646484375,-0.09891513226032257,-0.022362053933739662,-0.10948642983101307
1775428416885011700,9.55201171875,-0.005183540117740631,0.003066401833295822,-0.11869863180979154
1775428416895061800,9.562061767578125,-0.04749766423404216,0.028568507358431815,-0.14645868146270513
1775428416905110500,9.572110595703125,-0.07381050162017345,0.07519348041117191,-0.11539300525998696
1775428416915160600,9.58216064453125,-0.10532909095585345,0.07044482457935809,-0.10173180624940432
1775428416925209900,9.5922099609375,-0.03985153339505195,0.05132043739259243,-0.1179352553550154
1775428416935259600,9.602259765625,0.03724047411382198,0.005718962168693542,-0.09145558263515122
1775428416945308700,9.61230859375,0.08280337089300155,-0.018907529565691947,-0.07059860863527283
1775428416955358700,9.622358642578124,0.10353285518884658,-0.08085223682522773,-0.0760983750953339
1775428416965407500,9.632407470703125,0.07214987493157386,-0.08723813847005367,-0.06567284267088398
1775428416975457800,9.642457763671874,0.03749883278906345,-0.09660627079606056,-0.03833972232630476
1775428416985506600,9.652506591796875,-0.01559036784172058,-0.10724982988536358,-0.037266996794566506
1775428416995556600,9.662556640625,-0.03890022401958704,-0.09297405177354812,-0.04858092942610383
1775428417005605600,9.672605712890626,-0.09021627749800681,-0.07299275549650192,-0.007191884265467524
1775428417015655200,9.6826552734375,-0.13974398625493048,-0.08910743947327136,0.001080890571884811
1775428417025705200,9.692705322265626,-0.16676234156191347,-0.08083703925609588,-0.03301704773250967
1775428417035754200,9.702754150390625,-0.19058453117609023,-0.046504561543464655,-0.0027771913620643317
1775428417045804300,9.71280419921875,-0.16170213556289673,0.01944412066042423,-0.0007711487692780792
1775428417055853000,9.72285302734375,-0.08012801420390606,0.03412847957313061,-0.007118691165093332
1775428417065903000,9.732903076171874,0.011111468861997128,0.04084463608562946,-0.024273751040268687
1775428417075952000,9.7429521484375,0.02920212908685207,0.04929390000104904,-0.03950463791983202
1775428417086002200,9.753002197265625,0.028042437657713887,0.005839373677968979,-0.04071344745401293
1775428417096051200,9.76305126953125,0.055469666026532645,-0.0027729718446731564,-0.026341789485979823
1775428417106101000,9.77310107421875,-0.019472177711129187,-0.02267185053527355,-0.035078254578635094
1775428417116150000,9.78314990234375,-0.08070289148241282,-0.04693009347915649,-0.046339488908555354
1775428417126199300,9.79319921875,-0.026282734508812425,-0.0726537328004837,-0.03762616722946986
1775428417136249000,9.8032490234375,-0.03280219940543175,-0.04266659081578254,-0.007027761478628962
1775428417146298000,9.813298095703125,-0.037106034079194064,-0.026311083820462225,0.0032528825824148953
1775428417156348200,9.82334814453125,-0.0026829554736614225,-0.03385024715363979,-0.016759612550493328
1775428417166397200,9.833397216796875,0.007770634001493453,-0.031015315988659857,-0.02814944169614464
1775428417176447200,9.843447265625,0.023411855247616766,-0.05013619604408741,-0.07648806853266432
1775428417186496300,9.853496337890626,0.030220366218686102,-0.06395780064761639,-0.05250694376341998
1775428417196546000,9.863546142578125,0.06150690036416053,-0.09188742558062075,-0.04165027164639905
1775428417206595000,9.873594970703126,0.07614742013514042,-0.10698971764445304,-0.03961763330763206
1775428417216645000,9.88364501953125,0.05335398904681205,-0.09101590344309807,-0.07474721621470526
1775428417226694100,9.893694091796876,-0.010898410633206367,-0.058653849020600314,-0.02827177116787061
1775428417236743200,9.9037431640625,-0.11903116083294152,-0.045694998726248735,0.029529132551513612
1775428417246793000,9.91379296875,-0.16689444350898264,-0.007760697129368782,0.04881629081824794
1775428417256842200,9.92384228515625,-0.15274141499400137,0.016343232035636902,0.05126772082466632
1775428417266892300,9.933892333984375,-0.08407587504684924,0.050499184137582774,0.04125098839681595
1775428417276941000,9.943941162109375,0.03031155163347721,0.0543804094851017,0.018557802812568844
1775428417286991000,9.9539912109375,0.11131342606246471,0.050562897023558616,-0.004967541013192385
1775428417297040100,9.9640400390625,0.04182546381652355,0.11065466989278792,0.013022252653073519
1775428417307090000,9.97408984375,-0.07472118672430515,0.18642390436530112,0.05118280075388029
1775428417317139200,9.98413916015625,-0.17416998746991155,0.21198095494806765,0.042141470963135357
1775428417327189200,9.994189208984375,-0.2522375620126724,0.2429436639666557,0.05723243791535496
1775428417337238000,10.004238037109374,-0.28920214179456233,0.27370003675818444,0.09127011566618456
1775428417347287300,10.014287353515625,-0.17848755840808153,0.26315409282445906,0.1468196602622047
1775428417357337300,10.02433740234375,-0.025353344704210756,0.17129121716320514,0.09668424966940656
1775428417367386000,10.03438623046875,0.08251374029666185,0.07831073564887046,-0.0077955309807322916
1775428417377436200,10.044436279296875,0.08506780869364738,0.024153029003739356,0.019252634942624716
1775428417387485200,10.054485107421876,0.07525310164391993,0.000602057546377182,0.07055407537380233
1775428417397535000,10.064534912109375,0.07027180610001087,-0.07783318126499653,0.145749199752789
1775428417407584300,10.074584228515626,-0.08145254080593585,-0.09078969347178935,0.10736874355729668
1775428417417634300,10.08463427734375,-0.22866788585484027,-0.10631342581808566,0.037932511498592794
1775428417427683000,10.09468310546875,-0.21987667663395405,-0.0963905822187662,0.05267364209983497
1775428417437733000,10.104733154296875,-0.14249182365834712,-0.09394085097908973,0.12306147579494862
1775428417447782100,10.1147822265625,0.0347299525976181,-0.1276356153100729,0.06202573660649359
1775428417457831200,10.1248310546875,0.14404314475357533,-0.17238836475014685,0.014720398340467363
1775428417467881200,10.134881103515625,0.13686521594822407,-0.1561784037053585,0.028361714473646132
1775428417477930000,10.144929931640625,0.15771744984090327,-0.1636152757078409,0.051050808404665436
1775428417487980000,10.15497998046875,0.03572539337575435,-0.22307225780487058,0.009767141580954193
1775428417498029300,10.165029296875,-0.0052080900371074676,-0.21622867552042005,-0.03439520421791822
1775428417508079000,10.1750791015625,0.008776596173644065,-0.17613164293169975,0.014274517736490815
1775428417518128000,10.185128173828126,0.00850713158249855,-0.11261048013567924,0.04009469450116157
1775428417528178200,10.19517822265625,-0.0032993338063359258,-0.0990969185680151,0.08575067639127373
1775428417538227200,10.205227294921874,-0.018798516233265398,-0.08520926299095154,0.08018540694694966
1775428417548277200,10.21527734375,-0.027426351585984228,-0.03805529762804508,0.06078525329241529
1775428417558326300,10.225326171875,-0.077446227774024,0.039517186874151226,0.05622289554663002
1775428417568375000,10.235375,-0.10429857886433601,0.0998328316271305,0.061181285138987004
1775428417578425000,10.245425048828125,-0.12619155398160217,0.14196166230440138,0.05156224679183215
1775428417588474000,10.25547412109375,-0.10644289741665124,0.1463438229113817,0.07815399245088919
1775428417598524200,10.265524169921875,-0.04531009106189012,0.13872867173254488,0.08092838906766846
1775428417608573200,10.2755732421875,-0.014047814574837683,0.117944826900959,0.08263007841901854
1775428417618623200,10.285623291015625,-0.02210457204133272,0.08638181390166282,0.09966916549801826
1775428417628672000,10.295672119140624,0.006100070440769195,0.042839024773240086,0.09611209407094866
1775428417638722300,10.305722412109375,0.04254559478461742,0.027518121522665022,0.044029604530986394
1775428417648771000,10.31577099609375,0.09068155692219734,0.028808745855093,0.021277437034808097
1775428417658821000,10.325821044921875,0.13120645953416823,0.03526829725801944,0.06906887831734493
1775428417668870100,10.3358701171875,0.16511282078921793,0.02184241397380829,0.11027821952952072
1775428417678919200,10.345919189453125,0.1514250716984272,-0.03221767751574516,0.09025416182298213
1775428417688969200,10.35596923828125,0.09822978034466505,-0.10153495936989784,0.10502983401464298
1775428417699018200,10.366018310546876,0.10508943698108196,-0.11184241837263106,0.12081934115765616
1775428417709068000,10.376068115234375,0.12928864321410655,-0.11440613138079643,0.13122421438656748
1775428417719117000,10.386116943359376,0.16649872218966483,-0.12846914352476596,0.052204234489798544
1775428417729167000,10.3961669921875,0.16823533672392368,-0.11685820070803164,0.06058300871858373
1775428417739216100,10.406216064453124,0.11334551641196011,-0.08620937994420527,0.024878146674204616
1775428417749266200,10.41626611328125,0.007903904992341995,-0.05303308652937412,0.031186909695900975
1775428417759315200,10.426315185546875,-0.023617022430896757,-0.019262334352731704,0.018861261004861442
1775428417769365000,10.436364990234376,-0.08896773874163627,0.030743513309955596,-0.043312176976632324
1775428417779414300,10.446414306640625,-0.1747521712720394,0.07292787356674671,-0.05067075957851484
1775428417789463000,10.456463134765626,-0.17481237702667712,0.11309914043545723,0.001063555844593793
1775428417799513000,10.46651318359375,-0.14079437209069728,0.12682254536151885,0.016675861523486674
1775428417809562000,10.47656201171875,-0.0762356829404831,0.1286672964453697,-0.009696724959556013
1775428417819612200,10.486612060546875,0.008859013760089874,0.09896306305527687,0.033556068246345966
1775428417829661200,10.4966611328125,0.17574761205017567,0.03512158226370811,0.0403557748564519
1775428417839711200,10.506711181640625,0.2151338660210371,0.028200843089818954,-0.047817671702336514
1775428417849760000,10.516760009765624,0.12769874367415904,0.043860769036412235,-0.008706069954391568
1775428417859810000,10.52681005859375,0.06395546256005763,0.07218669981062412,0.06064202716313302
1775428417869859300,10.536859375,0.052041737404465674,0.07240706456303596,0.03756453670272603
1775428417879909000,10.5469091796875,0.007914718647301196,0.0818207895964384,-0.029645488940179345
1775428417889958100,10.556958251953125,-0.033704993464052674,0.11805880866944789,-0.04113810260687023
1775428417900007200,10.567007080078126,-0.07026333053261041,0.15946458576917646,-0.001490859612263739
1775428417910057000,10.577056884765625,-0.05837064816504717,0.13979191704988478,0.010839446987584232
1775428417920106200,10.587106201171874,-0.010590952119231223,0.09307049788534641,-0.08491097416412084
1775428417930156300,10.59715625,-0.0361111778229475,0.09495558097958565,-0.05306885196249932
1775428417940205000,10.607205078125,-0.03334288215339184,0.10472001914680004,-0.017320808363519607
1775428417950255000,10.617255126953125,-0.024160920049250124,0.10969137781858443,0.04769389919219538
1775428417960304400,10.627304443359375,0.03330050431638956,0.03469780389368534,0.03229629570990801
1775428417970354200,10.637354248046876,0.14633067116886375,-0.08143968132436274,-0.13623990539042277
1775428417980403200,10.6474033203125,0.06381371600180864,-0.13008125489652156,-0.12155777496742085
1775428417990453200,10.657453369140624,-0.042934301841259,-0.10443769507408142,-0.09726668919986113
1775428418000502000,10.667501953125,-0.046988253407180304,-0.1381359665364027,-0.06304362667845562
1775428418010551300,10.67755126953125,-0.02641717454344034,-0.18906185165345668,-0.10978080966770648
1775428418020601300,10.687601318359375,-0.015085633189976215,-0.21190788971185684,-0.17357876184480264
1775428418030650400,10.697650390625,0.06817483382076024,-0.20084405938386915,-0.16717444776045157
1775428418040700400,10.707700439453125,0.024496143352985382,-0.1416127027362585,-0.09680385746108368
1775428418050749200,10.717749267578125,0.01210427929162979,-0.09276888459026814,-0.1285728230949491
1775428418060799500,10.727799560546876,0.00101911391466856,-0.06417933444380759,-0.1564061663129367
1775428418070848300,10.73784814453125,0.0017106033101677894,-0.04179974485337734,-0.08354277281714603
1775428418080898300,10.747898193359376,0.02504179453700781,-0.028826866033673286,-0.04363662315802649
1775428418090947300,10.757947265625,0.01664864472299814,-0.028179800301790237,-0.0330020145601593
1775428418100997000,10.7679970703125,0.015466741462051868,-0.08130348772406577,0.013334186412766576
1775428418111046400,10.77804638671875,0.008475275139510631,-0.06836860282719134,0.034113921324815596
1775428418121095400,10.788095458984374,-0.04102905274182558,-0.02152911024093628,0.0611927563810721
1775428418131145200,10.798145263671875,-0.10005378090143204,0.0037830256700515743,0.016115469428058714
1775428418141194200,10.8081943359375,-0.11064765563011168,0.020841712498664854,-0.042762068813201035
1775428418151244300,10.818244384765626,-0.08305909921973943,0.043676060119271276,-0.059549756680708374
1775428418161293300,10.828293212890625,-0.05244096585512161,0.05410276158750057,-0.08712601986508815
1775428418171343400,10.83834326171875,-0.011003040051460265,0.03725800977051258,-0.06312827275460585
1775428418181392400,10.848392333984375,-0.000831190127134323,0.010067220506072044,-0.03917840164015069
1775428418191442200,10.858442138671874,0.008776888434588908,-0.0281464825540781,-0.09069722941536455
1775428418201491500,10.868491455078125,0.0011933014377951622,-0.031299393627047534,-0.08793616720419377
1775428418211540200,10.878540283203124,0.020369418811798094,-0.03795943603813648,-0.06021987449461594
1775428418221590300,10.88859033203125,0.07327917122244834,-0.06624328123629093,-0.14920673806183038
1775428418231639300,10.898639404296874,0.045154315978288645,-0.055714288437366484,-0.10777896832600235
1775428418241689000,10.908689208984375,0.08243161497116089,-0.016176643297076226,-0.05605888235764578
1775428418251738400,10.91873828125,0.10023907434046268,-0.04341244074702263,-0.02487009123191237
1775428418261788400,10.928788330078126,0.038569969151914116,-0.06686404348313808,-0.08024146624943242
1775428418271837200,10.938837158203125,-0.07125584870129824,-0.0719955611526966,-0.1166135052319616
1775428418281887200,10.94888720703125,-0.11476502782106399,-0.11302841328680514,-0.03734698496190831
1775428418291936500,10.9589365234375,-0.07785656214058399,-0.17711130161881447,-0.0006726202982477843
1775428418301986300,10.968986328125,-0.018104688750207425,-0.1666968751102686,-0.027468638091441244
1775428418312035300,10.979035400390625,-0.026174305698275564,-0.11194470970332622,-0.03677066464498639
1775428418322084400,10.98908447265625,-0.029870237606763838,-0.07639175028502941,-0.0008324505024589597
1775428418332134100,10.999134033203125,-0.02077916865646839,-0.018250526961684225,0.04349907785085961
1775428418342183400,11.009183349609375,-0.03260872265994549,0.040406244668364524,0.02442801002021879
1775428418352233500,11.0192333984375,-0.0738087480545044,0.07485270414948463,-0.00341757162483409
1775428418362282200,11.0292822265625,-0.10030892470628022,0.0628109687000513,-0.06614672552663832
1775428418372332300,11.039332275390626,-0.11157879900038242,0.067595280367136,-0.0445416639726609
1775428418382381300,11.04938134765625,-0.09335632908940315,0.08441372869908809,-0.04048225078033283
1775428418392431400,11.059431396484374,-0.07136720012128353,0.03272913416922092,-0.0004995652862824499
1775428418402480400,11.06948046875,-0.053011459219455714,0.02727905206978321,0.05834458214202896
1775428418412530400,11.079530517578124,-0.0167833770185709,0.06344868208169936,-0.0710250173537992
1775428418422579200,11.0895791015625,-0.012307108387351036,0.07716273465752602,-0.11651735138110816
1775428418432628500,11.09962841796875,-0.020161621280014513,0.12977847255766392,0.0034727176118642088
1775428418442678300,11.10967822265625,-0.005901332998275757,0.14148060078918934,-0.01654394223950803
1775428418452727300,11.119727294921875,0.006261398482322693,0.11580781487226485,-0.08133218409558758
1775428418462777300,11.12977734375,-0.008159341058135032,0.0771802703142166,-0.07467636120188981
1775428418472826400,11.139826416015625,-0.04675415239036083,0.06531506047546863,0.013746584872249513
1775428418482876400,11.14987646484375,-0.0216021754771471,0.07718377744555473,0.03182599305072799
1775428418492925400,11.159925537109375,0.03429682187736034,0.055744683575630186,-0.011804163833893835
1775428418502975200,11.169975341796874,0.023629297390580176,0.02869593313038349,-0.0031365444600582122
1775428418513024300,11.180024169921875,0.02370060906112194,0.025125088906288146,0.03157824710104614
1775428418523074300,11.19007421875,0.02457417702525854,0.015537176349759102,0.03634863984063268
1775428418533123300,11.200123291015625,0.010319733962416647,-0.03290799786746502,0.042927196247037495
1775428418543172400,11.21017236328125,-0.045941082441806794,-0.060164838105440134,-0.0323820012319833
1775428418553222400,11.220222412109376,-0.19901158325970172,-0.0363204366594553,0.013825933718774467
1775428418563271200,11.230271240234375,-0.25970424463152886,-0.0009440028518438339,0.06816641305228695
1775428418573321200,11.2403212890625,-0.14279577504098415,-0.00959901847243309,0.04873100542128086
1775428418583370200,11.250370361328125,-0.02179740578830242,-0.013294365859031676,-0.004358085611648858
1775428418593420300,11.260420166015624,0.062167117838561534,-0.017891630521416662,-0.05666769843837246
1775428418603469300,11.27046923828125,0.2530933020591736,-0.05732698433101177,-0.028751499242521822
1775428418613519400,11.280519287109374,0.3130395289778709,-0.10304653297662734,-0.006934402373060583
1775428418623568400,11.290568359375,0.28284020554721356,-0.15056348643302916,-0.01415174987334758
1775428418633618400,11.300618408203125,0.1353606566041708,-0.199177002954483,-0.010413403595238924
1775428418643667200,11.310667236328126,-0.03483428975492715,-0.22780922319889066,-0.030636710200924424
1775428418653716200,11.32071630859375,-0.08877280069142579,-0.22762743689119813,-0.05840146342841908
1775428418663766300,11.330766357421876,-0.07251578563451766,-0.14643500832617282,-0.10048068281030281
1775428418673815300,11.340815185546875,-0.04622106842696667,-0.07973287740647793,-0.05912031575487926
1775428418683865300,11.350865234375,-0.01611760658621788,-0.007122983747720718,-0.003761087832879275
1775428418693914400,11.360914306640625,0.005056114345788955,0.058306058496236796,0.030311368970386682
1775428418703964200,11.370964111328124,0.030254268488287925,0.0919680896013975,0.05129475496206432
1775428418714013400,11.381013427734375,0.02608955002427101,0.07434592367112636,0.05953693373175337
1775428418724063500,11.3910634765625,-0.019040800556540487,0.0644838703483343,0.038720757533144204
1775428418734112300,11.4011123046875,-0.05472527740001678,0.06423603306710719,0.05341174711603671
1775428418744162300,11.411162353515625,-0.11198328814804553,0.057476621934771537,0.028681740208249536
1775428418754211300,11.42121142578125,-0.14705343248546124,0.05449380673170089,0.023324085632618514
1775428418764260400,11.43126025390625,-0.12672609924972056,0.10718260986804962,0.012392631246335804
1775428418774310400,11.441310302734376,-0.042245150533318516,0.15285481224060057,-0.0025850115245208143
1775428418784359200,11.451359130859375,0.08454933777749538,0.13405483470261095,-0.002019048204831779
1775428418794409200,11.4614091796875,0.12376637266129255,0.09740122056603431,-0.07040999072799459
1775428418804458500,11.47145849609375,0.07302081254720687,0.0751718531012535,-0.08128721244269982
1775428418814508300,11.48150830078125,0.08877455425709485,0.05313537786006927,0.00008165040146559477
1775428418824557300,11.491557373046875,0.06936959656327962,0.008608253869414328,0.015844032075535506
1775428418834607400,11.501607421875,0.05172200393080711,-0.0386252064704895,-0.0675071088933386
1775428418844656000,11.51165625,0.08734452145397663,-0.06437047310173512,-0.09738635179046541
1775428418854705400,11.521705322265625,0.05448766925185918,-0.04947510178685188,-0.016165044190827756
1775428418864755500,11.53175537109375,0.06922375835180282,-0.07245382631421089,0.04188053673831746
1775428418874804200,11.54180419921875,0.10694646302461623,-0.09107903180718421,0.01488618336142972
1775428418884854300,11.551854248046874,0.038624037426710126,-0.06964695219993591,-0.002235394369252026
1775428418894903300,11.5619033203125,-0.05321078118383884,-0.034086393997073174,0.019639387504197657
1775428418904953300,11.571953369140624,-0.1041162080347538,-0.008990531185269355,0.025068773875478654
1775428418915002400,11.58200244140625,-0.10231061991751193,0.004701309558749199,0.009338139046542345
1775428418925052400,11.592052490234375,-0.060954819439351555,-0.01871872899532318,-0.04021022890591994
1775428418935101200,11.60210107421875,-0.03153554047048092,-0.010980243697762489,-0.024005510291829704
1775428418945151200,11.612151123046875,-0.005899579432606696,-0.0007703998506069183,0.01973811690462753
1775428418955200500,11.622200439453126,0.028113164806365967,0.027038813573122024,0.025730635317694393
1775428418965250300,11.632250244140625,0.06297697291672229,0.008065233033895492,0.06072429861910641
1775428418975299300,11.64229931640625,0.08236497947573661,-0.014776713371276855,0.06091876174528151
1775428418985348400,11.652348388671875,0.08729337578862904,-0.032788170880079265,0.016279939274769277
1775428418995398400,11.6623984375,0.0856263193592429,-0.011139818173646926,-0.004283869597967714
1775428419005447400,11.672447509765625,0.046641924187541005,0.010125672695040703,-0.05475192794492468
1775428419015496700,11.68249658203125,-0.05936433537751436,0.06431085186898708,-0.03983407080359757
1775428419025545700,11.692545654296875,-0.12028174541592597,0.07965688956081866,-0.029884266132116317
1775428419035595800,11.702595703125,-0.12077215928137301,0.08599661397635937,-0.05937534996187314
1775428419045644800,11.712644775390626,-0.08156418448686599,0.03764087160825729,-0.04804760800069198
1775428419055694800,11.72269482421875,0.023641572350263595,0.0008393734335899353,-0.013358882462605833
1775428419065743600,11.73274365234375,0.12279577406346798,-0.05418284108638763,-0.014531122846063225
1775428419075793000,11.74279296875,0.19581921695917845,-0.09920680868327617,-0.013741525104641914
1775428419085843000,11.752843017578124,0.2347878300398588,-0.13523790700733662,-0.025472806365415452
1775428419095891700,11.7628916015625,0.13283026134371756,-0.12994798390567303,0.0016357479756698011
1775428419105941800,11.772941650390624,0.0443675495147705,-0.1055278283983469,-0.031079430733434853
1775428419115990800,11.78299072265625,-0.0595563508182764,-0.08194061658382415,-0.013584982836060225
1775428419126040600,11.79304052734375,-0.19452713132202623,-0.06452537140250206,0.005150916489772498
1775428419136089900,11.80308984375,-0.2890828993290663,-0.0609679711818695,-0.03868522956203669
1775428419146140000,11.813139892578125,-0.281796833974123,-0.01754793165028095,-0.04617094567492604
1775428419156188700,11.823188720703126,-0.2520852940604091,0.011952888122200965,0.004458860838692635
1775428419166238700,11.83323876953125,-0.15646657299697397,0.02563888364732265,-0.03516562233483419
1775428419176288000,11.8432880859375,0.03507569729536771,0.0364858563542366,-0.07972526035560294
1775428419186336800,11.853336669921875,0.06348842957019805,0.04419219294786453,-0.021385445720236748
1775428419196386800,11.86338671875,0.06362023925632238,0.044480946761369704,-0.04865461571682244
1775428419206435600,11.873435546875,-0.023066987332701683,0.07142272970080375,-0.09560259191254153
1775428419216485600,11.883485595703124,-0.11012976923584937,0.08784136506021022,-0.05809471730049699
1775428419226535000,11.893534912109375,-0.09536942247748374,0.07568973949551581,-0.00430376160852611
1775428419236584700,11.903584716796875,-0.04870879358947277,0.0678653294801712,0.0054191024392843245
1775428419246633700,11.9136337890625,-0.04344225136339664,0.07945873664021491,0.01916077367439866
1775428419256683800,11.923683837890625,-0.049718555153906344,0.0647936669498682,0.06642179787466303
1775428419266732800,11.93373291015625,-0.07760814033746719,0.060418520605564116,0.034919502086658026
1775428419276781800,11.94378173828125,-0.13677373827248812,0.06034545536935329,0.03969329235972836
1775428419286831900,11.953831787109374,-0.13771861790716647,0.02723988910317421,0.04606069023348391
1775428419296880600,11.963880615234375,-0.14133973101377487,0.0036608605951070784,-0.009663772538024931
1775428419306930700,11.9739306640625,-0.08911796086728573,-0.039293314990401264,-0.03423995885727927
1775428419316980000,11.98397998046875,-0.018776596662402154,-0.07112988423407077,-0.021509163431450724
1775428419327029800,11.99402978515625,0.010135025045275688,-0.07748422169685364,-0.02070018513612449
1775428419337078800,12.004078857421876,0.005111059403419494,-0.0817553231447935,-0.020121106606535613
1775428419347128800,12.01412890625,0.0012748422414064406,-0.06316109731197357,-0.014449947368633002
1775428419357177900,12.024177734375,0.013756138151884078,-0.06442541815936564,-0.03580824935361743
1775428419367228000,12.034227783203125,0.0031938276052474973,-0.09025368689894675,-0.07786200550068169
1775428419377276700,12.044276611328126,-0.03248129688799381,-0.13042962994277477,-0.0796115343154408
1775428419387325700,12.05432568359375,-0.032419337567687036,-0.1299094054609537,-0.07324084850605576
1775428419397375700,12.064375732421874,-0.11498977648764848,-0.09891688582599162,-0.09239294568365439
1775428419407424800,12.0744248046875,-0.1775894405245781,-0.07201134324371815,-0.06951481372024863
1775428419417474800,12.084474853515625,-0.14025485838651655,0.0009615385085344314,-0.020446246907673774
1775428419427523800,12.09452392578125,-0.10103928480744362,0.0480973836928606,0.00293819061005488
1775428419437573600,12.10457373046875,-0.0373135393500328,0.06713993781507015,0.01193199146464467
1775428419447622700,12.11462255859375,0.03395721465945244,0.07603986810743808,0.018291626157052814
1775428419457673000,12.1246728515625,0.07682020483016967,0.03536649693548679,-0.00902965761926025
1775428419467721700,12.1347216796875,0.07520750893652439,0.037270284730195995,-0.04348028181884438
1775428419477771800,12.144771728515625,0.04024783923625946,0.07019990990757942,0.014484324562270194
1775428419487820800,12.15482080078125,-0.021421558213233948,0.10307342098355293,0.06721605352489278
1775428419497869800,12.164869873046875,-0.08156710709631443,0.12260112827420235,0.02216740814447403
1775428419507920000,12.174919921875,-0.11789251219183206,0.16172668548226354,0.007577595647424459
1775428419517969000,12.184968994140625,-0.07192366496026516,0.18659750736653805,0.004699081069044769
1775428419528018700,12.195018798828125,0.013664368215203284,0.16025076771080493,-0.007837068567518144
1775428419538067700,12.205067626953126,0.05408054975569248,0.09384148225784301,-0.07014016081066801
1775428419548117800,12.21511767578125,0.06942483388185501,0.033632805010676385,-0.09499772135457023
1775428419558166800,12.225166748046876,0.08316051376760006,-0.0217372000336647,-0.1003539694244042
1775428419568216800,12.235216796875,0.09072685736864805,-0.04721592468321323,-0.07410016874913125
