time,seconds_elapsed,z,y,x
1775428045249288000,0.066287841796875,-1.4371797522634266,-0.029641689547896383,-0.14743332604798487
1775428045259338000,0.076337890625,-1.2814204507529734,-0.14550094234645367,-0.19933831272972746
1775428045269386800,0.08638671875,-0.9097358405828475,-0.35824469836056233,-0.07715595785686746
1775428045279436800,0.096436767578125,-0.8016010445564985,-0.3991869496017694,0.08338086025370284
1775428045289486800,0.10648681640625,-0.8637386440396309,-0.25040157875716684,0.18893831660533322
1775428045299537000,0.116536865234375,-0.7555401351273059,-0.2814876218944788,0.1303392847782001
1775428045309586700,0.126586669921875,-0.4247591977536678,-0.3506955981552601,0.36631168496012684
1775428045319636000,0.136635986328125,-0.0506505753070116,-0.23198329401314258,0.2709890790327452
1775428045329686000,0.14668603515625,-0.03759177176952362,-0.06492576889693737,0.3035589675196446
1775428045339736000,0.156736083984375,-0.20019933173954485,-0.2469219199478626,0.30227185031855475
1775428045349785900,0.166785888671875,-0.7508481779187918,-0.5095452668964863,0.46117458268757905
1775428045359836000,0.1768359375,-1.0610837553918362,-0.573826892670989,0.4009230161467567
1775428045369886000,0.186885986328125,-1.0015227283984423,-0.28821137719154355,0.4074432482283562
1775428045379934700,0.196934814453125,-0.8342553599238395,-0.01935878046452999,0.12186864928118883
1775428045389984800,0.20698486328125,-0.538414218506217,0.0163911628305912,-0.4338329502429813
1775428045400034800,0.217034912109375,-0.36977147002518174,0.2223655708402395,-0.6495221120592206
1775428045410084900,0.2270849609375,-0.36174364639222617,0.4947919344007969,-0.7453579830046743
1775428045420134700,0.237134765625,-0.7422340788304805,0.12590835312604903,-0.6866555456019937
1775428045430184000,0.247183837890625,-1.0169500146329402,-0.4728472290962934,-0.8405999066449701
1775428045440234000,0.25723388671875,-0.8940648087203502,-0.4352683168083429,-0.4158730037257075
1775428045450283800,0.26728369140625,-0.5951011513680219,-0.38354339026808737,0.11338343726955354
1775428045460333800,0.277333740234375,-0.38012335269153114,-0.5718213980674743,0.47643692415133115
1775428045470383900,0.2873837890625,-0.020642975056171416,-0.4712637592971325,0.7563941946733742
1775428045480433000,0.297432861328125,0.3633978433400392,-0.30869010159671306,0.746046549790725
1775428045490482700,0.307482666015625,0.38478900641500946,-0.2819967404603958,0.6270641234703361
1775428045500533000,0.317532958984375,0.2359042668491602,-0.25017478426396844,0.5387803484048694
1775428045510583000,0.3275830078125,0.0019061258822679519,-0.016285364368557927,0.5290524428557605
1775428045520633000,0.337633056640625,-0.33391748183369635,0.1654243709564209,0.0492892420922406
1775428045530683000,0.347682861328125,-0.7891407914340496,0.30706337717771526,-0.6394406438320874
1775428045540732000,0.35773193359375,-0.9386766883850097,0.42682665167748923,-0.954820452325791
1775428045550782000,0.367781982421875,-0.931406405121088,0.43624680645167824,-0.9648081778548657
1775428045560831700,0.377831787109375,-1.1125666898697615,0.27962416611015795,-0.8453626640673726
1775428045570881800,0.3878818359375,-0.9162760560065507,-0.01990472390949726,-0.8143168068099766
1775428045580931800,0.397931884765625,-0.3960983359366655,-0.3218114489763975,-0.7875564448520541
1775428045590980900,0.40798095703125,0.07869301296472549,-0.3007230682402849,-0.4590183179691434
1775428045601031000,0.418031005859375,0.25845336778759953,0.11080664558410644,0.1693925439350307
1775428045611081000,0.4280810546875,0.40556466794013973,0.5857569844394922,0.8175903485879301
1775428045621131000,0.438131103515625,1.2290642405718564,0.6224310568422079,1.0164444031983613
1775428045631180800,0.448180908203125,1.9787626639336346,0.37442952496409415,0.8844386099800466
1775428045641230800,0.45823095703125,1.2746060945630073,0.1276870532363653,0.9633065411202609
1775428045651280000,0.46827978515625,0.06131459266245365,0.5887538281679153,0.748363375365734
1775428045661329200,0.4783291015625,-0.2690788066983223,1.1876046874582766,0.28488164824694395
1775428045671379200,0.488379150390625,-0.29382512542009354,1.246971068662405,0.15233677971586584
1775428045681429500,0.498429443359375,0.21151392195820806,1.25557815348804,0.3429378236353397
1775428045691479600,0.5084794921875,1.113341181373596,0.8661556420534848,0.46563145249858495
1775428045701528300,0.5185283203125,1.700967466816306,0.4315560182869434,0.4865657386515289
1775428045711578400,0.528578369140625,1.9151953239083288,0.6161006847769022,0.6029520109988749
1775428045721628400,0.53862841796875,1.78796244418025,0.9712404028594493,0.7444704595804214
1775428045731678200,0.54867822265625,1.3280863403379917,1.1630822406202554,0.7519776934053748
1775428045741728300,0.558728271484375,0.663168140900135,1.1231833609521389,0.5711493440248072
1775428045751778300,0.5687783203125,0.1382967100560665,1.017295467069745,0.3552196514509618
1775428045761827300,0.578827392578125,-0.07699614591896534,1.0181576368570326,0.21636684188209473
1775428045771877400,0.58887744140625,-0.03541676581799984,0.9294622853159904,0.2713148221220821
1775428045781927400,0.598927490234375,0.1320662912338972,0.8824439290314913,0.49395486252214754
1775428045791977500,0.6089775390625,0.16567454632520676,0.8864911585956812,0.730432801073417
1775428045802027300,0.61902734375,0.07977847011387347,0.9099450994193553,0.8124111923843622
1775428045812076300,0.629076171875,-0.1693324843108654,0.9117939421564341,0.6753375943824649
1775428045822126300,0.639126220703125,-0.4177934503942728,0.9741226802974938,0.4344515935979783
1775428045832176400,0.64917626953125,-0.6276929228931665,1.145797928342223,0.3807368084147572
1775428045842226200,0.65922607421875,-1.3103227201104164,1.0655857429862021,0.40116431408934294
1775428045852276200,0.669276123046875,-2.9679402900218963,0.5634428613007069,0.08691621303930878
1775428045862326300,0.679326171875,-2.5951152776449917,0.6871341228991746,-0.21378899075072258
1775428045872375300,0.689375244140625,-1.4175807333022354,0.6552350098133086,-0.44541769917253404
1775428045882425300,0.69942529296875,-0.4309609750032425,0.12533785976171494,-0.38375107820201665
1775428045892475400,0.709475341796875,0.06875730988383293,-0.179348266890645,-0.28002816206747666
1775428045902525400,0.719525390625,-0.1442231774955988,0.034648704054951664,-0.0864657110591419
1775428045912575200,0.7295751953125,-0.985258406817913,0.2952414219588041,0.07828629532735794
1775428045922624300,0.739624267578125,-1.407078043988347,0.2689578106671572,-0.19901498079318553
1775428045932674300,0.74967431640625,-0.7991437145322561,-0.039218496188521385,-0.8594696614835411
1775428045942724400,0.759724365234375,0.06454173801541328,-0.3925438583254814,-1.343602181638777
1775428045952774400,0.7697744140625,0.6321206762075424,-0.6030652621150017,-1.4530980368852615
1775428045962824400,0.779824462890625,0.8449076868414879,-0.5537701930701733,-1.2937743208914994
1775428045972874500,0.78987451171875,0.8684253405511378,-0.26247370934486386,-0.8969161795634776
1775428045982923300,0.79992333984375,0.8999731559813022,-0.02972761426568031,-0.5516745359651744
1775428045992973300,0.809973388671875,0.9304974735826254,-0.04562427157759666,-0.5760558207668364
1775428046003023400,0.8200234375,0.8408645489305258,-0.05888356612324714,-0.7880310766264795
1775428046013073400,0.830073486328125,0.9736176533848047,-0.19426585003733635,-1.0533126099336891
1775428046023123200,0.840123291015625,1.2141349669873713,-0.5038958628326654,-1.3814542117796837
1775428046033172500,0.85017236328125,1.437649123340845,-0.7935019092530011,-1.5524506837800145
1775428046043222500,0.860222412109375,1.3158254091799257,-0.8562544257640838,-1.3925164346724748
1775428046053272300,0.870272216796875,0.8660849149048327,-0.5444698652833699,-1.0500840763412416
1775428046063322400,0.880322265625,0.34381577551364895,-0.18211656256020067,-0.720602969519794
1775428046073372400,0.890372314453125,-0.13337269765734672,0.08538871121108531,-0.4176369446583092
1775428046083422500,0.90042236328125,-0.36837680079638957,0.4887812958091497,-0.2813849835039116
1775428046093471200,0.91047119140625,-0.04088496809601783,0.7402215699642897,-0.09552053965227678
1775428046103521300,0.920521240234375,0.6766366942822932,0.6642904229283333,0.34482487949095664
1775428046113571300,0.9305712890625,1.3493863179981709,0.5211369204908609,0.7355780550073832
1775428046123621000,0.94062109375,1.6228817720949649,0.4891957218289375,0.9343215619154274
1775428046133671200,0.950671142578125,1.4505553666651247,0.4412573280900717,0.9512063534818589
1775428046143721200,0.96072119140625,1.0910580378949641,0.12564648731946945,0.7016380837436765
1775428046153770500,0.9707705078125,0.31706980740725993,-0.20132745898663995,0.21766111947633324
1775428046163820300,0.9808203125,-0.7802502134919166,-0.28730595278441906,-0.3605522081179544
1775428046173870300,0.990870361328125,-1.594441859552264,-0.23491233320236204,-0.6988282870199531
1775428046183920400,1.00092041015625,-1.9546645799875257,-0.20917934153079987,-0.6882117620680481
1775428046193970400,1.010970458984375,-1.8251380363643168,-0.12339257091283798,-0.4981926462223753
1775428046204019200,1.021019287109375,-1.5570733751446009,0.0886526814430952,-0.1347577953401953
1775428046214069200,1.0310693359375,-1.3053338257819413,0.18277298064231873,0.28980538665102795
1775428046224119600,1.04111962890625,-1.249669806227088,0.06796352915763855,0.6663724898993969
1775428046234169300,1.05116943359375,-1.5658897188067435,0.0571077886223793,0.7649019107777625
1775428046244219400,1.061219482421875,-1.6744272504150866,0.1680517968505621,0.6339175695616751
1775428046254269400,1.07126953125,-1.6538041491031645,0.06424246280789375,0.35194888615198433
1775428046264318200,1.081318115234375,-1.4778782578766345,-0.0023228899896144866,0.23987939929151905
1775428046274368300,1.0913681640625,-1.143759700512886,-0.08225275127291679,0.40719186728317286
1775428046284418300,1.101418212890625,-1.3221727323800325,-0.1987158151835203,0.5553841676054522
1775428046294468400,1.11146826171875,-2.0136790790140626,0.03472410737872123,0.4528331995934248
1775428046304518100,1.12151806640625,-2.8586387883037325,0.1999012255758047,0.21197624224033204
1775428046314567400,1.1315673828125,-3.097717593535781,0.19580898782610892,-0.02228475091382861
1775428046324617500,1.141617431640625,-2.766014865142107,0.13089783197641372,-0.1977429880959913
1775428046334667500,1.15166748046875,-1.8307471084177493,0.14699381125271319,-0.35664091642573476
1775428046344717300,1.16171728515625,-0.6184931328713894,0.3857423616170883,-0.22010266740955411
1775428046354767400,1.171767333984375,0.7068044535309076,0.6035509998053312,0.21683093399619682
1775428046364817400,1.1818173828125,1.9090958379894494,0.6233756442159414,0.6682886987842619
1775428046374866200,1.1918662109375,2.697236512470245,0.7993395293653011,1.019199181799218
1775428046384916200,1.201916259765625,2.889794974067807,0.7079091999024152,0.963479851860553
1775428046394966300,1.21196630859375,2.5574253061980006,0.47275896629095077,0.4045066102545708
1775428046405016300,1.222016357421875,1.5567273381859064,0.421340329220891,-0.1232016879832372
1775428046415066400,1.23206640625,0.2211199546933174,0.38469080673754213,-0.5213206795599311
1775428046425116400,1.242116455078125,-1.06917061573565,0.5888070196598768,-0.6598479104362428
1775428046435165400,1.25216552734375,-1.8450012592196463,0.6645476125597953,-0.5267932657521218
1775428046445215200,1.26221533203125,-1.5042109690070151,0.36707916220128534,-0.6364791636779904
1775428046455265300,1.272265380859375,-0.4265004884630441,0.1731529193818569,-0.6546317832231521
1775428046465315300,1.2823154296875,0.5019020586669445,0.3591957154750824,-0.28376389626339077
1775428046475365400,1.292365478515625,1.1230676256179808,0.30858839478790756,0.0804608811537735
1775428046485414100,1.3024140625,1.641399133299291,0.34912206522822375,0.21841096972925586
1775428046495464400,1.31246435546875,1.8654682931870221,0.32979718703329564,0.05759203760852106
1775428046505514500,1.322514404296875,2.382485503399372,0.24226561857461928,-0.23509678639117626
1775428046515564500,1.332564453125,2.997146803022921,0.0030699089646339414,-0.1900783534859307
1775428046525614300,1.3426142578125,2.789322967754304,-0.1673094540506601,-0.05772124434560537
1775428046535664400,1.352664306640625,1.072048509259522,-0.05397358224987983,-0.20745116603132335
1775428046545713400,1.36271337890625,-0.77966569160223,0.038061727368831635,-0.5009883048228919
1775428046555763200,1.37276318359375,-1.2397019544422625,0.21087971570789812,-0.5027490674177184
1775428046565813200,1.382813232421875,-1.404991300842166,-0.05434358460605144,-0.3493685142699629
1775428046575863300,1.39286328125,-1.387467334589362,-0.13530278893709183,-0.22703217441178858
1775428046585913300,1.402913330078125,-1.6926424138024447,0.08790449342429638,-0.1230380035878159
1775428046595963100,1.412963134765625,-3.3918910940021276,0.56461190508008,-1.014859033703059
1775428046606012400,1.423012451171875,-4.785181435656547,0.3712362818807363,-1.4969379092641173
1775428046616062500,1.4330625,-5.571109694784879,0.07331190444827079,-0.773021577412635
1775428046626112300,1.4431123046875,-6.498192976009845,0.34856560038924217,-0.3785822972619906
1775428046636162300,1.453162353515625,-6.264015971344709,0.6888315744668245,-0.5479201884003356
1775428046646212400,1.46321240234375,-5.848066102990508,0.8410568566322326,-0.9087500444158911
1775428046656262400,1.473262451171875,-5.273715478706359,0.9616033904641866,-1.3015278576277196
1775428046666312400,1.4833125,-4.365813575552403,0.901564224565029,-1.7013418530866502
1775428046676362200,1.4933623046875,-3.9872184553414582,0.826949420824647,-2.0224569903619587
1775428046686412300,1.503412353515625,-3.5101249669775365,1.1006868669837713,-1.365675920150429
1775428046696462300,1.51346240234375,-2.729233240711689,1.2022481298387049,0.8304805906254797
1775428046706512400,1.523512451171875,-2.05297940826714,1.0512065044999122,3.050455199362337
1775428046716561400,1.5335615234375,-1.2645365359693765,1.3306553140431643,3.033329584777355
1775428046726611500,1.543611572265625,-0.08390691168811172,1.9936323162853717,2.115951705008745
1775428046736661500,1.55366162109375,1.0359376236975193,2.7072639854878187,2.333830924215168
1775428046746711600,1.563711669921875,1.185272445118427,2.731144627290964,2.185974797044694
1775428046756761300,1.57376123046875,1.7689222281455992,2.1922890947580336,1.769153260422498
1775428046766811400,1.583811279296875,3.0083915428757666,2.5395699160337446,0.8337906650215386
1775428046776860400,1.5938603515625,3.65546779615283,3.0922628352612254,0.6949087754886597
1775428046786910200,1.60391015625,3.3153006062746044,3.390565398356318,0.8252320955127477
1775428046796960300,1.613960205078125,1.7650164528787136,3.443782024759054,-0.27370920644532887
1775428046807010300,1.62401025390625,0.6151052439987659,2.521336924728751,0.22863924428224564
1775428046817060400,1.634060302734375,0.522861844587326,1.4678005159765481,-0.1809396825342439
1775428046827110400,1.6441103515625,2.0410171677947044,1.0570189901709557,-1.2538830400079488
1775428046837159400,1.654159423828125,3.2059690016791222,1.0563146412938833,-1.250784343340248
1775428046847209500,1.66420947265625,4.079688941507041,1.0754992342352867,-1.0157335515152663
1775428046857259300,1.67425927734375,4.67936514570564,1.2862637991309165,-0.5278987793086096
1775428046867309300,1.684309326171875,5.118979675024748,1.1848854916274547,-0.05304359879023395
1775428046877359400,1.694359375,4.861444006603956,0.8756704893738031,-0.22091906182635573
1775428046887409400,1.704409423828125,3.901702318358421,0.4751929154396057,-0.2751434404995292
1775428046897458400,1.71445849609375,2.8175305328458546,0.06402618970870971,-0.16731500700861215
1775428046907508500,1.724508544921875,1.5687009768351912,0.03845277251303196,-0.04663411534042097
1775428046917558500,1.73455859375,0.5259069113716482,-0.031145664370059965,-0.04520399120575748
1775428046927608600,1.744608642578125,0.04293488636314869,-0.5678080707728862,-0.4869848043138161
1775428046937658400,1.754658447265625,1.343928929375112,-1.1114251186192035,-0.686140654882416
1775428046947708400,1.76470849609375,2.0262997833952308,-1.003287399983406,-0.25741224297052245
1775428046957757400,1.77475732421875,2.0531354756116866,-0.49266135211288925,0.5056432910218834
1775428046967807200,1.78480712890625,1.0372691645622252,-0.24176059166193006,0.7311502286277711
1775428046977857300,1.794857177734375,-0.010053191980719566,-0.21239655001163482,0.34410525997951624
1775428046987907300,1.8049072265625,-0.5244909070938826,-0.23194530009031294,-0.270037331265863
1775428046997957400,1.814957275390625,-0.23510756351351736,-0.042530981737375254,0.048031478849798435
1775428047008007200,1.825007080078125,0.6615612902253866,0.4077390893697738,0.28200696959346533
1775428047018056400,1.835056396484375,1.1725248994871973,0.45851942853629585,0.1475709535535425
1775428047028106500,1.8451064453125,0.6684066260755062,0.35911563597619534,-0.014534301183838397
1775428047038156300,1.85515625,0.007526303851604461,0.6824070943772792,0.06330752004534006
1775428047048206300,1.865206298828125,-0.415739732734859,0.7361509595245123,0.15607877925578503
1775428047058256400,1.87525634765625,-0.5221536963179707,0.45324821013510225,0.08002071790453046
1775428047068306400,1.885306396484375,-0.6357651701897382,0.14381050504148005,0.08030437541780992
1775428047078355200,1.895355224609375,-1.0404282131150364,-0.18024843060076234,-0.12841456379331648
1775428047088405200,1.9054052734375,-1.4550801506131887,-0.24733926857709884,-0.23304469443326814
1775428047098455600,1.91545556640625,-1.5182275116607546,-0.25065350769162176,-0.2349437147213146
1775428047108505600,1.925505615234375,-0.9805141349002718,-0.3486766595482826,-0.47365635352209207
1775428047118555400,1.935555419921875,0.10529811129570006,-0.28754034606218337,-0.397345815247111
1775428047128605400,1.94560546875,0.6460676607564091,0.35135903050005435,0.26176767996735867
1775428047138654500,1.955654541015625,0.6997349535360932,0.8115063524991274,0.4897931762654334
1775428047148704300,1.965704345703125,1.0010533573210239,0.8615525321722031,0.6680388156764209
1775428047158754300,1.97575439453125,0.9735863814637065,0.9842372470766305,1.1012664204373954
1775428047168804400,1.985804443359375,0.749493548439443,0.3842512462764978,0.9401168041907251
1775428047178854400,1.9958544921875,0.3905047537133097,-0.7690940287053585,0.16897519530579447
1775428047188904200,2.005904296875,0.10212912587076425,-1.562666080585122,-0.8905779164526612
1775428047198953500,2.015953369140625,0.2349512039080262,-2.0870301464289427,-1.5513728254154324
1775428047209003500,2.02600341796875,0.3852735750615597,-1.547926776614785,-0.804594235023111
1775428047219053300,2.03605322265625,-0.07268500472158193,-0.6067869129866361,0.4253632280614227
1775428047229103400,2.046103271484375,-0.12350421459376812,-0.5602537098705769,0.5430918183958158
1775428047239153400,2.0561533203125,-0.3047314270988107,-0.6693266635298728,0.5202847971735521
1775428047249203500,2.066203369140625,-0.4827852702647447,-0.8193453755617142,-0.08475786596164107
1775428047259252200,2.076252197265625,0.05794248588085174,-0.9093728524893522,-0.7235699295666068
1775428047269302300,2.08630224609375,0.47286301118731494,-0.8909042988628149,-0.5050700577111914
1775428047279352300,2.096352294921875,0.28596126017719503,-0.305500950166583,-0.3910614012153819
1775428047289402400,2.10640234375,-1.3024199841618538,0.39936405973434447,0.24060619746241718
1775428047299452400,2.116452392578125,-1.2936822586938739,0.4598392789632082,0.4190122881321236
1775428047309502500,2.12650244140625,-0.21955197472423313,0.5230196654975414,-0.12975691831298172
1775428047319552500,2.136552490234375,0.19971447083204982,0.3932026144951582,-0.782855865945667
1775428047329601300,2.146601318359375,1.3986138747647403,0.5437321986585855,-0.4149751050379127
1775428047339651300,2.1566513671875,1.5077330056533216,0.6525865411311388,-0.3957775430170819
1775428047349701400,2.166701416015625,0.2738403220117092,0.8480091599881648,-0.6415430229388177
1775428047359751400,2.17675146484375,-0.6875076323866843,1.4157628702253102,-0.7031934234268963
1775428047369801200,2.18680126953125,-1.2411261420264839,1.0580284594744442,-0.696636183803156
1775428047379851300,2.196851318359375,-1.5073676794722675,0.18101240071058272,-0.6416992364138364
1775428047389900500,2.206900634765625,-0.7325102649345994,-0.06500234126448631,-0.8479874596130103
1775428047399950300,2.216950439453125,-0.4201894056200981,0.16249416272342204,-0.4972778329323977
1775428047410000400,2.22700048828125,-0.2359320316389203,-0.024732874718308446,0.6252683260947466
1775428047420050400,2.237050537109375,0.28531448670625686,-0.029942718321084975,1.3664032115116715
1775428047430100500,2.2471005859375,0.779891317051649,-0.02100713219344616,1.247240387123078
1775428047440150300,2.257150390625,0.5161693612113595,-0.08545885383784771,0.3078864935962483
1775428047450199300,2.26719921875,0.08510726392120123,0.09040683163404464,-0.7926794869542121
1775428047460249300,2.277249267578125,-1.4681334011927245,0.15703005209863186,-0.7443070126470178
1775428047470299400,2.28729931640625,-1.5615756549999118,0.1978834560126066,-0.06190436154941562
1775428047480349200,2.29734912109375,-0.25670009437948466,-0.15422843868136404,0.40970352131053805
1775428047490399500,2.3073994140625,0.6346738678216934,-0.5037789584547281,0.3758592655062675
1775428047500449500,2.317449462890625,1.1307377218544483,-0.2463601944118738,-0.08381473989263176
1775428047510498300,2.327498291015625,0.9953986925601959,-0.20513912622928618,-0.036891359282052144
1775428047520548400,2.33754833984375,0.426217287607491,-0.1756231088876724,-0.36735067261904475
1775428047530598400,2.347598388671875,-0.213766961582005,0.0044815293282270425,-0.7763090746507049
1775428047540648400,2.3576484375,-0.7823746582999825,0.20825579694509505,-0.5970969282951205
1775428047550698200,2.3676982421875,-0.8448466043040156,0.5439665919363499,-0.2336306228287518
1775428047560748300,2.377748291015625,-0.15092676678746939,0.6280225932389497,0.09748024061899632
1775428047570797600,2.387797607421875,0.3232473269984126,0.6354191332310438,0.2901940206424333
1775428047580847400,2.397847412109375,0.541508092868328,0.308296718364954,0.3791555671053007
1775428047590897400,2.4078974609375,0.5718637759044766,0.05519406395554542,0.3882935804698616
1775428047600947500,2.417947509765625,0.045749067001044745,-0.31563889782130716,0.050022214275598526
1775428047610997500,2.42799755859375,-0.6054162091553211,-0.6968237422645092,-0.4390682936131954
1775428047621047300,2.43804736328125,-0.6393114644944667,-0.029822891333699225,-0.7304897919576615
1775428047631097300,2.448097412109375,-0.8622145032122731,0.12526888617873191,-0.016051281618047506
1775428047641146400,2.458146484375,-0.3677589611589908,-0.490697943085432,0.412122565151006
1775428047651196400,2.468196533203125,-0.16933599144220352,-0.18858371274769306,0.26181847857283425
1775428047661245700,2.47824560546875,0.13327420571893453,-0.1592769542425871,0.182092067439761
1775428047671295700,2.488295654296875,0.2747206119775772,0.12354746921360492,0.47147009552419183
1775428047681345800,2.498345703125,0.1681058651253581,0.5196680169820785,0.6431123911473899
1775428047691395600,2.5083955078125,0.41201135986149307,-0.5429337417572736,0.2469619779636152
1775428047701444600,2.518444580078125,0.37445465940535066,-0.6646335372775792,-0.30861236018538474
1775428047711494700,2.52849462890625,-0.004690495903789997,-0.14591536836624144,-0.15061954573551192
1775428047721544400,2.53854443359375,-0.1200409223973751,0.08086275821924209,0.3251144725771621
1775428047731594500,2.548594482421875,0.004758008182048797,0.2843792516827583,0.4952593692494556
1775428047741644500,2.55864453125,0.08993804507851601,0.9732534962475299,0.650512730531767
1775428047751694600,2.568694580078125,0.007481880187988281,0.8914677779644727,0.7053937830153852
1775428047761743600,2.57874365234375,0.18449732021689413,0.18484043456614016,0.5762364380307495
1775428047771793700,2.588793701171875,0.15533786122798918,0.5743056160986423,0.40721937634460625
1775428047781843700,2.59884375,0.034905016903579236,0.0671855305224657,-0.19909389124829321
1775428047791893500,2.6088935546875,-0.06657061349451542,-0.5521007985532284,-0.4645973967431113
1775428047801943600,2.618943603515625,-0.40147184566855426,-0.8698544965714216,-1.820233751579374
1775428047811993600,2.62899365234375,-0.4057309644177556,-0.9049293170839547,-1.6173912118546663
1775428047822043600,2.639043701171875,0.06955781261175871,-0.5426882425636053,-0.6174938196357339
1775428047832092400,2.649092529296875,0.06259937177598476,-0.13816753071844576,0.07851833225125446
1775428047842142500,2.659142578125,0.217312379103899,0.044235447567701335,0.3750536116791889
1775428047852192800,2.66919287109375,0.3221726835042238,-0.29359716188311574,0.49453346612770105
1775428047862242800,2.679242919921875,0.0060553545162081715,-1.0443746126532554,0.7288084878072142
1775428047872292600,2.689292724609375,-0.17892741113007068,-1.673986520910263,0.23770265804063528
1775428047882342700,2.6993427734375,-0.21945757443904876,-0.9886848741352557,0.024545677016559055
1775428047892391700,2.7093916015625,-0.19855594844669103,-0.24542495938837527,0.010746782001759856
1775428047902441500,2.71944140625,0.26647417715787886,-0.07179740823209285,0.05345346736591309
1775428047912491500,2.729491455078125,0.6358984411805868,-0.030455928540229795,-0.015410024572443216
1775428047922541600,2.73954150390625,0.9062655341237783,-0.0027361469656229016,-0.11756720749391242
1775428047932591600,2.749591552734375,1.3295505676716566,-0.06295183847546577,-0.05785329149374738
1775428047942641400,2.759641357421875,0.9225199188321829,0.3689420334637165,0.3783554662361741
1775428047952691500,2.76969140625,0.7627262472391129,0.3202525290966034,0.3545885139405727
1775428047962740700,2.77974072265625,0.8097013489037752,0.0978109704107046,0.22622264812719076
1775428047972790500,2.78979052734375,0.39888182917535303,0.13018237718343734,0.5360947625827044
1775428047982840600,2.799840576171875,0.32778380138427016,-0.08661270004808902,0.18115641229115426
1775428047992890600,2.809890625,-0.32475685477852817,-0.17384031712412834,-0.3827261556010693
1775428048002940700,2.819940673828125,-0.6216390296816825,0.013957213681936264,-0.6550476705476641
1775428048012990500,2.829990478515625,-1.0314797675058245,0.127521633541584,-1.1656420081056653
1775428048023039500,2.84003955078125,-1.3898317256331443,-0.12002104865312575,-1.6650282845593989
1775428048033089500,2.850089599609375,-1.2085410925030708,0.20255086330175398,-1.3081556052044032
1775428048043139600,2.8601396484375,-0.7412509130120277,0.5529635528624057,-0.4454690275009721
1775428048053189600,2.870189697265625,-0.7595520011171698,0.4782201543062925,-0.1992127683876082
1775428048063239700,2.88023974609375,-0.7367492176786065,0.511942391166091,-0.668426353689283
1775428048073289700,2.890289794921875,-0.38217093287110326,0.5633627818018198,-0.736623253211379
1775428048083339800,2.90033984375,-0.01329290455430746,0.4350006057828665,-0.01594849709700793
1775428048093388500,2.910388427734375,0.16871902858763932,0.30052549984157084,0.900010857643187
1775428048103438600,2.9204384765625,0.27299130396693944,0.22965806593596935,0.9762029206376522
1775428048113488600,2.930488525390625,0.013394319102168083,0.1300970369875431,0.5707920184871181
1775428048123538400,2.940538330078125,-0.16809008303433656,-0.08195990580618381,-0.12779038574667648
1775428048133588500,2.95058837890625,-0.1406371357023716,-0.10223521659374236,-0.19770627281479536
1775428048143638500,2.960638427734375,-0.02461070964336395,0.13024784363508224,0.5015902527714148
1775428048153687600,2.9706875,0.20203151560276744,0.28087036677896976,0.9209325035102665
1775428048163737600,2.980737548828125,0.27943770362734793,0.31851649908423424,0.827519914188981
1775428048173787600,2.99078759765625,0.2100423881009221,0.25338731656968594,0.4345465053398162
1775428048183837700,3.000837646484375,0.2022290840014815,0.1282499478161335,-0.03167425482142716
1775428048193887500,3.010887451171875,0.22287673523277043,0.09246259512007236,-0.10988332019411026
1775428048203937500,3.0209375,0.21996786204874513,0.05748889689445495,-0.026068653366714715
1775428048213987600,3.030987548828125,0.10588877066522837,-0.09848492414951324,-0.024212650236487387
1775428048224036600,3.04103662109375,-0.13497750250548124,-0.16430559605956077,-0.15373287371676414
1775428048234086400,3.05108642578125,-0.2322799388721585,-0.11648410669863224,-0.15124887488130478
1775428048244136400,3.061136474609375,-0.30390578992962836,-0.06440846702456474,-0.05632562526874244
1775428048254186800,3.071186767578125,-0.27819764043837786,-0.06977613153755664,-0.011178615814074873
1775428048264236800,3.08123681640625,0.0784007520198822,-0.09658347444236277,-0.023116489030234513
1775428048274286600,3.09128662109375,0.24598902301192282,-0.07715279778540134,0.02338650161065161
1775428048284335600,3.101335693359375,0.23063041809946297,-0.10059037199616432,0.004433525468036532
1775428048294385700,3.1113857421875,0.13405074304938316,-0.15420155067443847,-0.013502309521287678
1775428048304435500,3.121435546875,0.1359028006568551,-0.15762684894800186,-0.052427010395005344
1775428048314485500,3.131485595703125,0.25627280887812376,-0.16455869403779505,-0.014920250027813017
1775428048324535600,3.14153564453125,0.32535862006396055,-0.2691974646419287,0.1884086484417319
1775428048334585600,3.151585693359375,0.1064776764690876,-0.561678189715743,0.06791187203563749
1775428048344635400,3.161635498046875,-0.14513210903406143,-0.5205179118096828,-0.16264690559972075
1775428048354684700,3.1716845703125,-0.10159311929792166,-0.30004619189202786,-0.09187708684969693
1775428048364734700,3.181734619140625,-0.08928191925734281,-0.16060264988839626,-0.08230517557989805
1775428048374784500,3.191784423828125,-0.2358846853658557,0.07159282557070255,-0.11812270421851426
1775428048384834600,3.20183447265625,-0.3483081184968352,0.1556990957558155,-0.1554120224427432
1775428048394884600,3.211884521484375,-0.31217823597341776,0.1486275499343872,-0.08581957690902053
1775428048404934700,3.2219345703125,-0.28035540299415584,0.06983107659518718,0.05641692028138786
1775428048414984400,3.231984375,-0.22216128043979405,-0.04244973319470882,0.0619664076346904
1775428048425033500,3.242033447265625,-0.22374767284840344,-0.06721124948561191,-0.0261732097197324
1775428048435083500,3.25208349609375,-0.13793781361579893,-0.03548573940098285,0.023311938537098467
1775428048445133600,3.262133544921875,-0.003930325186252593,0.009291559958457946,0.05874912608861923
1775428048455183600,3.27218359375,0.056092766360938545,-0.05559738405942916,0.09049005293808877
1775428048465233700,3.282233642578125,0.06881810016036033,-0.094408468490839,0.001861665686033666
1775428048475283700,3.29228369140625,0.08451806585639715,-0.1304109252423048,-0.04776471767239272
1775428048485332500,3.30233251953125,0.1659153693437576,-0.0995756419956684,-0.04704465976953506
1775428048495382500,3.312382568359375,0.2293999995216727,-0.03886252235770225,0.002139788507670164
1775428048505432600,3.3224326171875,0.16104074904471635,-0.0027227029621601103,0.06964381039477885
1775428048515482600,3.332482666015625,0.08287439030259847,-0.048153497794270514,-0.016913104345463215
1775428048525532400,3.342532470703125,-0.01483399651646614,-0.062198389759659765,-0.08594656428955495
1775428048535582500,3.35258251953125,-0.07961918789893388,-0.07372925307750701,-0.03582041471544653
1775428048545632500,3.362632568359375,0.0291334477648139,-0.0771849464893341,0.008412512101605533
1775428048555681500,3.372681640625,0.01175181259214878,-0.028936171627044677,0.06243676509279757
1775428048565731600,3.382731689453125,-0.07527034503966569,-0.007270867785811424,0.021344182128086683
1775428048575781600,3.39278173828125,-0.053369186615943906,0.004912906482815742,0.049927558262087404
1775428048585831700,3.402831787109375,0.015410627360641955,0.019975451058149338,0.03898428557384759
1775428048595881700,3.4128818359375,0.026261399459838866,0.03890869958698749,-0.027021460579521952
1775428048605931500,3.422931640625,0.03008943331539631,0.07658288894295692,-0.04344210523292422
1775428048615981600,3.432981689453125,0.037921734376251695,0.09782090728282927,-0.05977291617840528
1775428048626030600,3.443030517578125,0.08476268826723098,0.09106734136939049,-0.07945402393247931
1775428048636080400,3.453080322265625,0.11941899110674857,0.07334814480543136,-0.0938630365025252
1775428048646130700,3.463130615234375,0.10581921256035566,0.06552958000898361,-0.13390242061987517
1775428048656180700,3.4731806640625,0.016702420736849306,0.048263972431421276,-0.1316492348656058
1775428048666230800,3.483230712890625,-0.016000994469225406,0.06873802066147328,-0.12828282717242837
1775428048676280800,3.49328076171875,-0.014116203635931013,0.0830365951269865,-0.1581322411868721
1775428048686329600,3.50332958984375,-0.01743424214273691,0.10502806218266486,-0.1324653370214626
1775428048696379600,3.513379638671875,-0.004935702836513519,0.07819500031471252,-0.09155238493997603
1775428048706429700,3.5234296875,0.01687485469430685,0.025003508353233336,-0.14732680606674403
1775428048716479500,3.5334794921875,-0.02023585556000471,-0.012318798825144767,-0.1566395549437031
1775428048726529500,3.543529541015625,-0.020987550710141658,0.00622749621272087,-0.062151481878012414
1775428048736579600,3.55357958984375,-0.03947656260281801,-0.017106033101677895,-0.08476531861573457
1775428048746629600,3.563629638671875,-0.11814911730140447,-0.0389911171734333,-0.11214910970162599
1775428048756678700,3.5736787109375,-0.17118892583251,-0.04312894763052463,-0.1384262912524864
1775428048766728700,3.583728759765625,-0.08581687349528073,-0.01743862605690956,-0.11194017965868115
1775428048776778800,3.59377880859375,-0.022631226263940332,-0.01934650550484657,-0.09063965400923044
1775428048786828500,3.60382861328125,0.047939855043590066,-0.07047755780518054,-0.09754683958180248
1775428048796878600,3.613878662109375,0.12813888865709305,-0.07979775933623313,-0.003978730905242264
1775428048806928600,3.6239287109375,0.1347039462611079,-0.08857727811932563,0.031728871085494756
1775428048816978700,3.633978759765625,-0.008300503094494342,-0.10372048671543597,0.07015128499288112
1775428048827027500,3.64402734375,-0.19799159256219862,-0.0990922423928976,0.05841218575183302
1775428048837077500,3.654077392578125,-0.30002076518982645,-0.06628653585612773,-0.002378309971280396
1775428048847127600,3.66412744140625,-0.16864947048276663,-0.05348901360332965,-0.054084020354412496
1775428048857177900,3.674177734375,0.018344342724978924,-0.033255788391828536,-0.09212525292448699
1775428048867227600,3.6842275390625,0.0027989830687642097,-0.00032207156121730803,-0.0651812049627304
1775428048877277700,3.694277587890625,-0.01873538786917925,0.01500000073313713,-0.05055420226044952
1775428048887327700,3.70432763671875,-0.10254998163133859,0.05491290892660618,-0.047497116244770585
1775428048897376500,3.71437646484375,-0.0982248119086027,0.0823439366877079,-0.043880788911134
1775428048907426600,3.724426513671875,-0.029772914712131022,0.08757833020985126,0.013179799568653106
1775428048917476600,3.7344765625,0.07743161472678184,0.07238309916555881,0.01929572516568005
1775428048927526700,3.744526611328125,0.1379369368329644,0.037250410985946655,0.02052892022244632
1775428048937576400,3.754576416015625,0.11951426817476749,0.01080196452140808,0.08473828447833656
1775428048947626500,3.76462646484375,0.0663052405565977,-0.016183657559752464,0.0930751375278458
1775428048957676500,3.774676513671875,-0.01113309617191553,-0.03702478553652763,0.04060545703489333
1775428048967725600,3.7847255859375,-0.10900836399048566,0.016205869391560553,0.03262271465267986
1775428048977775600,3.794775634765625,-0.14940759439617393,0.07365501879751682,0.04708163077905774
1775428048987825700,3.80482568359375,-0.09125877228826283,0.1014794297903776,0.05395268559232354
1775428048997875700,3.814875732421875,-0.03126841396689415,0.08392916005253791,0.07890866500940173
1775428049007925500,3.824925537109375,-0.005023381119966507,0.05546235950291156,0.07326886902414262
1775428049017975600,3.8349755859375,-0.00953150619417429,0.04345101919174194,0.0469969481702894
1775428049028024600,3.845024658203125,-0.019425708220899104,0.019652210453152654,0.028054493421688673
1775428049038074600,3.85507470703125,0.007450608266890048,0.013261632633209227,0.04563340473212302
1775428049048124700,3.865124755859375,0.06172638833373785,-0.008266308563947677,0.021505364039167762
1775428049058174700,3.8751748046875,0.05169979209899902,0.005026303729414939,0.06747943543512373
1775428049068224800,3.885224853515625,0.01516600494980812,0.02190846494734287,0.02392535772770643
1775428049078274800,3.89527490234375,0.03524579316526651,-0.003201426389813423,0.02042878431621939
1775428049088324600,3.90532470703125,0.15918021586984396,-0.0962298386991024,0.0450628383025527
1775428049098373600,3.91537353515625,0.09037672875672578,-0.14387889410257337,-0.03364807564504444
1775428049108423700,3.925423583984375,-0.1316308224260807,-0.10926643040478229,-0.023865663429722187
1775428049118473500,3.935473388671875,-0.21027473555207252,-0.06514262651801109,-0.01073587701525539
1775428049128523500,3.9455234375,-0.17583850520402192,-0.110011111292243,-0.05173774948921054
1775428049138573600,3.955573486328125,-0.1125184179380536,-0.1337403619259596,-0.06272698021102696
1775428049148623600,3.96562353515625,-0.067140230076015,-0.10869359895288944,0.022903503866679966
1775428049158673400,3.97567333984375,-0.008058511032164097,-0.08995032003819942,0.07271832246929406
1775428049168722700,3.98572265625,0.0732660194799304,-0.13364625390172005,0.07091017706878483
1775428049178772700,3.995772705078125,0.06607172406166792,-0.19383447288274763,0.050026269396208224
1775428049188822500,4.005822509765625,0.015419395188987254,-0.18822306274175643,0.10344009887147694
1775428049198872600,4.01587255859375,-0.022838439273834228,-0.16206979983150957,0.031200061438418924
1775428049208922600,4.025922607421875,-0.05610036514550447,-0.10608429323732853,0.002216433940455317
1775428049218972700,4.03597265625,-0.08944149373322725,-0.021689269238710403,0.010574220180138944
1775428049229022700,4.046022705078125,-0.10534165817648172,0.00208440505862236,-0.02762578314822167
1775428049239071500,4.056071533203125,-0.12606763534098864,0.009624152913689612,-0.04001432274132967
1775428049249121800,4.066121826171875,-0.11862550264149904,0.05532441233694553,0.04500000219941139
1775428049259171800,4.076171875,-0.04068476934880018,0.058717561906576156,0.08793529042135924
1775428049269221600,4.0862216796875,0.019936872613430023,0.021098317608237264,0.0485759975226596
1775428049279271700,4.096271728515625,-0.03132335902452469,0.036486440876126285,0.029799583523347974
1775428049289321700,4.10632177734375,-0.060793491397798056,0.03481353922784328,0.03908489640410989
1775428049299371800,4.116371826171875,-0.06642068362981081,-0.002242225968837738,0.020195194756053386
1775428049309420500,4.126420654296875,-0.05442804801911115,0.00024900632500648496,0.021633922322280702
1775428049319470600,4.136470703125,-0.04667845680564642,0.0042407063096761705,0.05349697771407663
1775428049329520600,4.146520751953125,0.023264263470470906,-0.007457914790511131,0.07708123038653283
1775428049339570400,4.1565703125,0.07464081496447324,-0.008485504272580146,0.06965075159221887
1775428049349620500,4.166620361328125,0.04144230971783399,0.02527472651004791,0.0963891939792782
1775428049359670500,4.17667041015625,0.023153204311430454,0.035278818652033805,0.06474825690556317
1775428049369720600,4.186720458984375,0.006793021140992641,0.013601239851117133,0.04341138130109757
1775428049379769600,4.19676953125,-0.0021735446467995643,-0.023417700466513633,0.06139262633472681
1775428049389819600,4.206819580078125,0.018438450749218464,-0.03999123412668705,0.07875073450133203
1775428049399869700,4.21686962890625,-0.034432138694822784,-0.018117255970835685,0.06012644232381135
1775428049409919700,4.226919677734375,-0.10432312878370284,-0.030729484784603116,0.00921151699218899
1775428049419969500,4.236969482421875,-0.15198065975457428,-0.024269348859786984,0.0033908480146899816
1775428049430019600,4.24701953125,-0.15480273143798112,0.0016156185030937193,0.026616277312114835
1775428049440069600,4.257069580078125,-0.025088848549127577,0.007906827601790428,0.02327997249625623
1775428049450118700,4.26711865234375,0.05292787258923053,-0.016605682364106176,0.029444924866780638
1775428049460168700,4.277168701171875,-0.060361529721319675,-0.03636661388874054,0.014204539506509899
1775428049470218800,4.28721875,-0.17739859412759543,0.002613397368788719,0.02125752675794065
1775428049480268800,4.297268798828125,-0.19535510657876728,0.0327735578328371,0.02390113660190254
1775428049490318600,4.307318603515625,-0.11630495073944329,0.02898351790010929,0.008949687718227505
1775428049500368600,4.31736865234375,-0.03431991049200296,0.006769932526350021,0.060312612545676526
1775428049510418700,4.327418701171875,0.013842939652502537,-0.014859130957722663,0.03613949060197919
1775428049520468700,4.33746875,0.04163520194143057,-0.013628127858042717,-0.00000310527253895998
1775428049530517500,4.347517578125,0.048372401241958136,-0.01884030954837799,0.0076127034934237595
1775428049540567600,4.357567626953125,0.0013245266020298003,0.012988660910725593,-0.014569719557091593
1775428049550617600,4.36761767578125,-0.049444706648588174,0.02755786901116371,-0.026591435131803152
1775428049560667400,4.37766748046875,-0.12060557054281235,0.007997428494691849,-0.04496244666799903
1775428049570717700,4.3877177734375,-0.2080360167145729,0.021888591203093527,-0.06084924017302692
1775428049580767700,4.397767822265625,-0.18135756088644264,0.0378887088894844,-0.06561002483405172
1775428049590817800,4.40781787109375,-0.06744301241487265,0.037083822247385975,-0.05500329062379896
1775428049600866600,4.417866455078125,-0.011080489201843739,0.020966215661168096,0.026963885173387825
1775428049610916600,4.42791650390625,0.0017450901016592979,-0.01778933919072151,-0.01951046389490366
1775428049620966700,4.437966552734375,0.027397417752444742,-0.04575988065600395,-0.01512786489650607
1775428049631016700,4.4480166015625,0.08708060982078314,-0.0643792409300804,-0.039218386590667065
1775428049641066500,4.45806640625,0.034409926863014695,-0.07382862179875374,-0.04820102673042565
1775428049651116500,4.468116455078125,-0.06277911225706338,-0.049800680479407305,-0.006406250313110649
1775428049661166600,4.47816650390625,-0.07331658062338829,-0.05083586874604225,-0.02281604477893561
1775428049671216000,4.488216064453125,-0.05019669405966997,-0.06274024155139923,-0.013255349022895097
1775428049681266200,4.49826611328125,-0.010799626433849335,-0.045450668576359744,0.04597819958180189
1775428049691316000,4.50831591796875,-0.01361614515930414,-0.09255378053486346,0.06543061314653605
1775428049701366000,4.518365966796875,-0.02682458630055189,-0.12309095761775969,0.0014791691744700072
1775428049711416000,4.528416015625,-0.04873363576978445,-0.1273392627120018,-0.027996625754609702
1775428049721466000,4.538466064453125,-0.07548895622640847,-0.0962257470458746,-0.006363397552073002
1775428049731516000,4.548515869140625,-0.0901534413948655,-0.05528875650167465,0.0005759001918137073
1775428049741565000,4.55856494140625,-0.025743805326521395,-0.048667877057194706,-0.014422566171362994
1775428049751615000,4.568614990234375,0.06643529667705297,-0.06041793608367443,-0.007528678471781313
1775428049761664800,4.578664794921875,0.09618512277454137,-0.07000351055264473,-0.014751213603839278
1775428049771714800,4.58871484375,0.046539632856845856,-0.09606558804810046,-0.00781874745953828
1775428049781764900,4.598764892578125,-0.040813071903586386,-0.050803720042109486,0.013379267663508653
1775428049791815200,4.608815185546875,-0.10886574064940213,-0.02864800233542919,-0.00041691023781895636
1775428049801865000,4.618864990234375,-0.13795681057721376,-0.012435703203082083,-0.047483343447744845
1775428049811914000,4.6289140625,-0.13862521135807038,0.01438040753006935,-0.09899590587895363
1775428049821964000,4.638964111328125,-0.06892565218806267,0.04316343442201614,-0.05896437627449631
1775428049832013800,4.649013916015625,-0.02143587899953127,0.06770341691672802,-0.04619640890974551
1775428049842064000,4.65906396484375,0.02019610807150602,0.025640637212991712,-0.06316559082400053
1775428049852114000,4.669114013671875,0.045459144143760205,-0.0033802900880575176,-0.08945862753111869
1775428049862164000,4.6791640625,0.008398410511016845,0.0069172320425510405,-0.127730271323584
1775428049872213800,4.6892138671875,0.004296235889196396,-0.018161679634451866,-0.15514727055933325
1775428049882263800,4.699263916015625,0.018906652782857417,-0.036928339424729346,-0.1487625379582867
1775428049892313000,4.70931298828125,0.004538227951526642,-0.05994447335302829,-0.17527721805945037
1775428049902363100,4.719363037109375,-0.04843903673738241,-0.019172902503609656,-0.17240590040683745
1775428049912413000,4.729412841796875,-0.10464695391058922,0.005202244818210602,-0.15118731741979718
1775428049922463000,4.739462890625,-0.19844021311253307,0.031926001092791555,-0.12057988811228423
1775428049932513000,4.749512939453125,-0.25431056889444587,0.06499883413314819,-0.12901669440492988
1775428049942563000,4.75956298828125,-0.22895956227779388,0.052119478815793985,-0.11868446628712118
1775428049952612900,4.76961279296875,-0.16094605649858712,0.021598083823919294,-0.17310458672810344
1775428049962662000,4.779661865234375,-0.1090180086016655,0.004410802179574966,-0.17999672086201607
1775428049972712000,4.7897119140625,0.0006444353833794593,-0.0320242007702589,-0.1270733052521944
1775428049982762000,4.799761962890625,0.15931728625297545,-0.09015724078714847,-0.09072561525963246
1775428049992812000,4.80981201171875,0.27736060509234667,-0.13929273535609243,-0.0881692818403244
1775428050002862000,4.819862060546875,0.2508724111393094,-0.13302724522054193,-0.030994054004922507
1775428050012912000,4.829912109375,0.1519558175742626,-0.1589887849509716,-0.015532390576787292
1775428050022962000,4.8399619140625,0.06375380250811577,-0.2090162599235773,-0.06681508977487682
1775428050033011000,4.850010986328125,-0.050743222026526924,-0.21640344756543636,-0.11111326384786516
1775428050043061000,4.86006103515625,-0.10075959108322859,-0.19074469017386436,-0.04894062958396971
1775428050053111000,4.870111083984375,-0.1330558867931366,-0.15617606561779976,-0.03796615803986787
1775428050063160800,4.880160888671875,-0.20093027636259794,-0.1402314775109291,-0.12558898497857152
1775428050073211000,4.8902109375,-0.17478578128069638,-0.1250870998710394,-0.13721198355928063
1775428050083261000,4.900260986328125,-0.1757473197892308,-0.06512742894887924,-0.07013184964004904
1775428050093311000,4.91031103515625,-0.13624065430909393,-0.01983633484840393,-0.04203548983801156
1775428050103360800,4.92036083984375,-0.012742577195167542,-0.016843582773208618,-0.04347567870896309
1775428050113410000,4.93041015625,0.10847907941937446,-0.024505495703220366,-0.08672043473888189
1775428050123460000,4.940460205078125,0.1791901537194848,-0.012496493479609488,-0.0934714433690533
1775428050133510000,4.950510009765625,0.12705547733455896,0.025239655196666717,-0.09514036296196281
1775428050143560000,4.960559814453125,-0.0071592241048812864,0.046560091122984884,-0.10904460434764623
1775428050153610000,4.97060986328125,-0.14496581255644558,0.03223229056298733,-0.14030162013769149
1775428050163660000,4.980659912109375,-0.22673370292186737,0.02537234166562557,-0.15051029494106768
1775428050173709800,4.990709716796875,-0.21131080060154198,0.01910334439873695,-0.1014631727753207
1775428050183758800,5.0007587890625,-0.1331497025564313,0.014509002345800399,-0.042007103993743654
1775428050193809200,5.01080908203125,-0.06818769330233335,0.0037082068681716916,-0.0658751420436427
1775428050203859000,5.02085888671875,-0.03288374020904302,0.004251227703690528,-0.09315729938596487
1775428050213909000,5.030908935546875,-0.020336393325030802,-0.0012719196319580077,-0.0924770620368421
1775428050223959000,5.040958984375,-0.03652706514745951,-0.015971476113796235,-0.07977284409068525
1775428050234009000,5.051009033203125,-0.032813013060390944,-0.030019290688633918,-0.07960205410104244
1775428050244059000,5.061058837890625,-0.021174013192951677,-0.04081424094736576,-0.09490688299965112
1775428050254108000,5.07110791015625,0.01061900916993618,-0.07659457938075065,-0.08871851322092116
1775428050264158000,5.081157958984375,0.04190875818580389,-0.10362637869119644,-0.09681202250123024
1775428050274208000,5.0912080078125,0.06308043329119682,-0.10271335549950598,-0.05549863639269024
1775428050284257800,5.1012578125,0.07047638876140118,-0.09726385792195796,-0.04952343444060534
1775428050294307800,5.111307861328125,-0.04107727579772472,-0.10809037236273288,-0.01116400276683271
1775428050304358000,5.12135791015625,-0.074091072127223,-0.1636643755465746,-0.054314358511567115
1775428050314408000,5.131407958984375,-0.1135512681171298,-0.1762123069524765,-0.08939842177648097
1775428050324458000,5.1414580078125,-0.17347060702890157,-0.17815350414812564,-0.10822123220078647
1775428050334507000,5.151507080078125,-0.2073570945397019,-0.12496902644932269,-0.10593348658978939
1775428050344557000,5.16155712890625,-0.2254094685807824,-0.06485153461694718,-0.1301314507137984
1775428050354606800,5.17160693359375,-0.1770616172581911,-0.01914309188723564,-0.11848521738797425
1775428050364657000,5.181656982421875,-0.12217939573079346,0.014297405421733855,-0.09328699018023907
1775428050374707000,5.19170703125,-0.1709589164689183,0.0386164386421442,-0.1244114290991798
1775428050384757000,5.201757080078125,-0.16235533877462147,0.05033025731146335,-0.12373265305478125
1775428050394806800,5.211806884765625,-0.1191173778116703,0.07006839248239993,-0.10390735105704516
1775428050404856000,5.22185595703125,-0.026898820580542087,0.069385670915246,-0.05118004254121333
1775428050414906000,5.231906005859375,0.018193536077439783,0.060791445571184155,-0.08153762527350336
1775428050424956000,5.241955810546875,0.012090250766277313,0.06094926648139953,-0.12198460381105541
1775428050435006000,5.252005859375,-0.0014788403809070586,0.0474614238768816,-0.133563069130294
1775428050445056000,5.262055908203125,-0.047453825092315674,0.0023258125990629195,-0.1140529340289533
1775428050455106000,5.27210595703125,-0.05613426741510629,-0.02220949372053146,-0.08060757788177579
1775428050465155800,5.28215576171875,-0.05140899245887994,-0.023825112223625183,-0.04414700209926813
1775428050475206000,5.292205810546875,-0.046744507779181,-0.017538579300045966,-0.031651385402493175
1775428050485255000,5.3022548828125,-0.08475801209211349,0.01995616183578968,-0.03944722691047937
1775428050495305000,5.312304931640625,-0.0872471985593438,0.06168751762807369,-0.031204518417827783
1775428050505355000,5.32235498046875,-0.04173690875023603,0.11512743139266968,-0.08163045465610921
1775428050515405000,5.332405029296875,-0.03974018197506666,0.15486381397545337,-0.07368285665251315
1775428050525455000,5.342455078125,-0.05837620112299919,0.15018880790174008,-0.05072305602133274
1775428050535505200,5.352505126953125,-0.09673837274312973,0.1463537597835064,-0.039619112878665326
1775428050545555000,5.362554931640625,-0.1615399307385087,0.14103870224058626,-0.054054976923018694
1775428050555604000,5.37260400390625,-0.17222703670859335,0.11401976241171359,0.008085106778144837
1775428050565654000,5.382654052734375,-0.1057715740263462,0.07438041046261787,-0.005643924171105027
1775428050575703800,5.392703857421875,0.00034486791491508483,0.008083937734365464,-0.012385872711986302
1775428050585753900,5.40275390625,0.11933686578124761,-0.04527648105323315,0.031580731319077314
1775428050595804000,5.412803955078125,0.18889993909001349,-0.09109013772308826,0.03759593648798763
1775428050605854000,5.42285400390625,0.14429536594897507,-0.16300152772367,0.006356712082959711
1775428050615903700,5.43290380859375,0.08076105141043663,-0.252029472219944,-0.05286445196419954
1775428050625953000,5.442953125,-0.03019084786325693,-0.263191502225399,-0.05703333514668047
1775428050636003000,5.453003173828125,-0.13523060048371552,-0.21766075415015218,-0.04449333131890744
1775428050646053000,5.46305322265625,-0.07747428482472896,-0.17258125697374344,-0.05122479499839246
1775428050656103000,5.47310302734375,-0.07953384770303965,-0.12235738264620304,-0.03751023096591234
1775428050666153200,5.4831533203125,-0.08413111236542463,-0.06977087084054946,-0.022738230302371085
1775428050676203300,5.493203369140625,-0.10353870040774345,-0.046664136019349094,-0.061089843995869156
1775428050686253300,5.50325341796875,-0.1533808819413185,-0.006684007808566093,-0.044774961271882054
1775428050696303400,5.513303466796875,-0.09994389078617096,0.032575404912233354,-0.038699367685243485
1775428050706352000,5.52335205078125,-0.08169745547771454,0.0799561647683382,-0.0435317562777549
1775428050716402200,5.533402099609375,-0.11589081698060034,0.1523129604488611,-0.0011299538780003785
1775428050726452200,5.5434521484375,-0.09873889891058206,0.1940975077331066,0.012136245332472026
1775428050736502300,5.553502197265625,-0.09132131613045931,0.22093641481995582,0.014998101036995648
1775428050746552300,5.56355224609375,-0.09358341584354639,0.23760347198247908,0.00048475130964070555
1775428050756602400,5.573602294921875,-0.16600860058516262,0.256069102999568,0.019049056928232312
1775428050766652400,5.58365234375,-0.18830811067670583,0.2589098793834448,0.01884936963766813
1775428050776701200,5.593701171875,-0.008647124575078487,0.21841303382217883,0.032620851489156485
1775428050786751200,5.603751220703125,0.18041940325349567,0.12481880432367325,0.06060385057721287
1775428050796801300,5.61380126953125,0.30848902606666084,0.05159925433397293,0.07478785875234753
1775428050806851000,5.62385107421875,0.3371440426647663,-0.04493628931343555,0.09434468253962695
1775428050816901000,5.633901123046875,0.2984554155692458,-0.12920505658388137,0.09777049226984381
1775428050826951200,5.643951171875,0.23228753765672444,-0.21060382137596606,0.09319207843840122
1775428050837001200,5.654001220703125,0.1548620604097843,-0.2927408373147249,0.03816540693901479
1775428050847051300,5.66405126953125,0.052850715699791904,-0.30694296566843987,-0.05642788006681949
1775428050857100300,5.674100341796875,-0.0340001770183444,-0.24524375760257242,-0.10672102023828774
1775428050867150300,5.684150390625,-0.12104776135236024,-0.1906640261530876,-0.12327427829541265
1775428050877200400,5.694200439453125,-0.1395326815918088,-0.1523439401090145,-0.11722707055304199
1775428050887250200,5.704250244140625,-0.14519728322476147,-0.11295125639736651,-0.13643383879363535
1775428050897300200,5.71430029296875,-0.1413853237211704,-0.09601882629692554,-0.12565050590746105
1775428050907350300,5.724350341796875,-0.07267039167433977,-0.07784720979034901,-0.09388791521545499
1775428050917400300,5.734400390625,-0.01448416016548872,-0.004538812473416328,-0.03754749423637986
1775428050927449300,5.744449462890625,0.019691373419761658,0.0835942290097475,0.0077998235633596775
1775428050937499400,5.75449951171875,0.005136486105620861,0.12506664160490036,0.04463807355184108
1775428050947549400,5.764549560546875,-0.005959785187244415,0.14626374341249465,0.04010313353594392
1775428050957599200,5.77459912109375,-0.06713789198845624,0.17975626316964624,0.015987331270053983
1775428050967649300,5.784649169921875,-0.08679653218239546,0.16563538335859773,-0.031575580219924446
1775428050977699300,5.79469921875,-0.04973609081059694,0.14777064084410665,-0.034511670204438266
1775428050987749400,5.804749267578125,-0.0143652099609375,0.12396890949606895,-0.041794849482551216
1775428050997799200,5.814799072265625,0.06420593018978833,0.07374094351530075,-0.07158599397111684
1775428051007848200,5.82484814453125,0.12291413974612951,0.023364508974552153,-0.09269275061413645
1775428051017898200,5.834898193359375,0.12403233012109995,0.00580839401781559,-0.10079623329918831
1775428051027948000,5.844947998046875,0.12733195618838072,-0.019957915401458737,-0.09180709035340696
1775428051037998000,5.854998046875,0.12423194434642791,-0.0599094020396471,-0.06179364488366991
1775428051048048400,5.86504833984375,0.0797273244485259,-0.10472937149703503,-0.020235417168587445
1775428051058098400,5.875098388671875,0.05273264227807521,-0.14701017786562443,-0.011269764696247875
1775428051068148200,5.885148193359375,0.0012689970225095747,-0.19977263076007365,-0.0016959902629256247
1775428051078198300,5.8951982421875,-0.06199439162015914,-0.1986030024588108,0.01709642502311617
1775428051088247300,5.905247314453125,-0.10917319916337728,-0.19800036039054392,0.03303122238833457
1775428051098297300,5.91529736328125,-0.13018909918516874,-0.17060265037715433,0.025679580983892083
1775428051108347100,5.92534716796875,-0.12634937489181755,-0.15572715280652044,0.026191914420202373
1775428051118397200,5.935397216796875,-0.06641805328130722,-0.1397007316350937,-0.005586166101880371
1775428051128447200,5.945447265625,-0.0039151276171207425,-0.11275251895487308,-0.009499247892387212
1775428051138497300,5.955497314453125,-0.015614625500142573,-0.07373451377451419,-0.00092412910759449
1775428051148547000,5.965547119140625,-0.046213761903345585,-0.05074176072180271,0.01474562411326915
1775428051158596400,5.975596435546875,-0.07234159811139107,-0.04699555993080139,-0.006849938960000872
1775428051168646400,5.985646484375,-0.09491729479581117,0.030762218010425564,0.03937938583865762
1775428051178696200,5.9956962890625,-0.07270984690189361,0.06966974855363368,0.05463979107365012
1775428051188746200,6.005746337890625,0.0019245383217930793,0.05171089801490306,0.02850070281922817
1775428051198796300,6.01579638671875,-0.026008009220659732,0.07018529686033725,0.01772014641202986
1775428051208846300,6.025846435546875,-0.1164925822660327,0.08786240784823894,0.0457169913623482
1775428051218896100,6.035896240234375,-0.10224135407358408,0.11748597721755503,0.03588496785163879
1775428051228946200,6.0459462890625,-0.04510989231467247,0.1436211199492216,0.015225516584701835
1775428051238995200,6.0559951171875,0.11963731003254652,0.12741174342632294,-0.013179032383672892
1775428051249045200,6.066045166015625,0.1553486748829484,0.1656985117226839,0.0021519904021173714
1775428051259095300,6.07609521484375,0.0657151657089591,0.17001871300935745,0.04636979271527379
1775428051269145300,6.086145263671875,0.02776566654294729,0.08364742050170898,0.006752323804423212
1775428051279195400,6.0961953125,-0.03815203600078821,0.04911386725902557,-0.013766623013280332
1775428051289245400,6.106245361328125,-0.04235942456275225,0.06683481738865375,0.007212671325169504
1775428051299295200,6.116295166015625,0.03650456105470657,0.052883448925614356,0.08238291699122637
1775428051309344300,6.12634423828125,0.07547463544011115,0.023127777609229086,0.011251388789340852
1775428051319394300,6.136394287109375,0.06194879891276359,-0.015535422784090041,-0.0008837240319699048
1775428051329444000,6.146444091796875,0.08916063096523284,-0.020156652843952176,0.007232654667273164
1775428051339494100,6.156494140625,0.06022825873047113,-0.05543313340842723,-0.0386123835215345
1775428051349544200,6.166544189453125,-0.046286827139556404,-0.07184592354893685,-0.07504391587264836
1775428051359594200,6.17659423828125,-0.13309095810651778,-0.08054477831125259,-0.03484148668069392
1775428051369644300,6.186644287109375,-0.13014993621855975,-0.08984101444482803,0.023542678553052244
1775428051379694300,6.1966943359375,-0.12860212225466966,-0.1159235502064228,0.02607201436758041
1775428051389743400,6.206743408203125,-0.09082184217572212,-0.10259762016534804,-0.014517331782728432
1775428051399793200,6.216793212890625,-0.023312194265425204,-0.07177168926894664,0.009379968894273042
1775428051409843200,6.22684326171875,0.031151217328011988,-0.03254208716452121,0.032555896494165064
1775428051419893200,6.236893310546875,0.05702127938270569,-0.046452539095282554,0.008751315601915121
1775428051429943300,6.246943359375,0.06093114630281925,-0.06441665033102036,-0.03214786368254572
1775428051439993000,6.2569931640625,0.04941431151032447,-0.05843114618062973,-0.05326499558910727
1775428051450043100,6.267043212890625,-0.0032163316980004307,-0.024534137275815007,-0.04835176031272858
1775428051460092400,6.277092529296875,-0.015834113469719885,-0.016188333734869956,-0.029979871993698178
1775428051470142500,6.287142578125,0.06816226660013198,-0.020009937849640846,-0.05470131200253963
1775428051480192300,6.297192138671875,0.09682692780941725,0.005849895071983337,-0.041847164191678166
1775428051490242300,6.3072421875,0.0019099252745509146,0.015497428861260413,-0.03004800532646477
1775428051500292400,6.317292236328125,-0.1205681611418724,0.02185761154294014,-0.021933270595036445
1775428051510342400,6.32734228515625,-0.10282236883193253,-0.006865209594368934,-0.009864318345114588
1775428051520392200,6.33739208984375,-0.03826923263967037,-0.02797697120606899,-0.04600486839301884
1775428051530442200,6.347442138671875,0.03420826681107282,-0.026870471268892287,-0.065910249889642
1775428051540491300,6.3574912109375,0.1084381628870964,-0.011846505138278007,-0.0687618764610961
1775428051550541000,6.367541015625,0.11008563783317804,-0.003865443256497383,-0.07113160126712173
1775428051560591000,6.377591064453125,0.029267303277552125,0.018193828338384628,-0.045393531561642886
1775428051570641200,6.38764111328125,-0.05756137760877609,-0.025059622454643247,-0.15213508313130586
1775428051580691500,6.39769140625,-0.0940925344094634,-0.01791734948456287,-0.14217344189155845
1775428051590741200,6.4077412109375,-0.13743307896405457,0.010651742395758628,-0.13345011027511208
1775428051600791300,6.417791259765625,-0.11505056676417588,-0.010681553012132644,-0.11745887001492082
1775428051610840300,6.42784033203125,-0.009766483993828297,-0.04767711245417595,-0.08819207819402217
1775428051620890000,6.43789013671875,0.033983810405433176,-0.04461304870843887,-0.03958400503266603
1775428051630940200,6.447940185546875,-0.03250087837129831,-0.021895605465769765,-0.03362699632439762
1775428051640990200,6.457990234375,-0.058114335316419595,-0.017898644784092903,-0.08002199654616415
1775428051651040300,6.468040283203125,-0.017248364181816578,-0.012221183669567107,-0.04189911357462406
1775428051661090000,6.478090087890625,0.006807634188234805,-0.039682022047042846,0.018301855290122328
1775428051671140000,6.48814013671875,-0.00001578209102153778,-0.08369768938422202,0.0033019641548395155
1775428051681190000,6.49818994140625,0.03933627734929323,-0.13877075730860233,-0.062059675408713516
1775428051691239200,6.5082392578125,0.05415566081851721,-0.11342881078124045,-0.051285475677065546
1775428051701289200,6.518289306640625,0.021670272277295587,-0.12206395265758037,-0.025743147739395497
1775428051711339300,6.52833935546875,0.018721651604771614,-0.12106558926999568,-0.1011431470407173
1775428051721389000,6.53838916015625,0.0028115502893924713,-0.07923661832213401,-0.09191033153217286
1775428051731439000,6.548439208984375,-0.03187485542744398,-0.030295185020565985,-0.030771241567097603
1775428051741489200,6.5584892578125,-0.06779284876585007,-0.014947978284955024,-0.022863719845563173
1775428051751539200,6.568539306640625,-0.11241261947602033,0.012227028888463973,-0.009527378008328377
1775428051761589000,6.578589111328125,-0.11281535505801439,0.04937281045615673,0.05969528436493128
1775428051771638300,6.58863818359375,0.004210018910467624,0.027642624685168263,0.03908485987149179
1775428051781688300,6.598688232421875,0.1504267083108425,-0.013758476239442825,0.007127952183783054
1775428051791738000,6.608738037109375,0.20813918482810256,-0.01757423513531685,0.010994199157878757
1775428051801788200,6.6187880859375,0.07795417729616165,-0.011560089412331581,0.03013009411934763
1775428051811838200,6.628838134765625,-0.04139671701043844,-0.04017652756571769,0.042597324971854686
1775428051821888300,6.63888818359375,-0.03191021900177002,-0.0460322678565979,0.029534283650666474
1775428051831938000,6.64893798828125,-0.05003273566961288,-0.032738486519455906,0.013426139012537896
1775428051841987000,6.658987060546875,0.033551264207065105,0.004957914668321609,0.0014632044203579425
1775428051852037000,6.669037109375,0.029252982491254804,0.0315144976824522,0.029958573477342723
1775428051862087000,6.6790869140625,-0.048639527745544905,0.06795183871984481,-0.0046490313822403545
1775428051872137000,6.689136962890625,-0.10174655629396438,0.10654781909584998,-0.01786919949389994
1775428051882187000,6.69918701171875,-0.12961159155815838,0.1600947003662586,-0.010608780036866664
1775428051892237300,6.7092373046875,-0.19811112728863953,0.19935586665272712,0.012331000719591974
1775428051902287000,6.719287109375,-0.2593003400057554,0.2121189021140337,0.04562679232824594
1775428051912337200,6.729337158203125,-0.10654051257222891,0.18426526502668855,0.01935052409283817
1775428051922386200,6.73938623046875,0.051905251543223854,0.16087094543576239,0.027738961199112237
1775428051932436200,6.749436279296875,0.0836786924228072,0.15731296069324016,0.07394574537239969
1775428051942486000,6.759486083984375,0.15911299585253,0.07985562700331211,0.08444733870774507
1775428051952536000,6.7695361328125,0.19514409417659043,-0.013979425513744353,-0.0074087053539231415
1775428051962586000,6.779586181640625,0.10055968459695577,-0.07290040103793144,-0.0723944973424077
1775428051972636200,6.78963623046875,0.007671265280246734,-0.11704875484406947,-0.04268134999349713
1775428051982686000,6.79968603515625,-0.08874006746560334,-0.15160978061556815,-0.017876177223958074
1775428051992736000,6.809736083984375,-0.1336567752957344,-0.20667875688672063,0.03185041510593146
1775428052002785300,6.819785400390625,-0.11545096425861119,-0.2521276718974113,0.024466077008284626
1775428052012835000,6.8298349609375,-0.15213818840384483,-0.26530454885661603,-0.08512092712037264
1775428052022885000,6.839885009765625,-0.19302461780458688,-0.15357552773058414,-0.04570373002197593
1775428052032935200,6.84993505859375,-0.15570406419187782,-0.06674713910520076,-0.007901420774310827
1775428052042985200,6.859985107421875,-0.04250204790383577,-0.039221418797969816,0.011193119263462722
1775428052053035000,6.870034912109375,0.0449582088842988,-0.0696516283750534,-0.003612929800152778
1775428052063085000,6.8800849609375,0.06510141772478818,-0.04091477871239185,-0.020478943600878118
1775428052073134000,6.890134033203125,0.07891776163130998,-0.023208441630005835,0.017898863979801536
1775428052083184000,6.90018408203125,0.05176496628969907,-0.05553016404211521,0.02374485006164759
1775428052093234200,6.910234130859375,-0.005370002600550651,-0.08243395305871963,-0.012882204861566424
1775428052103284200,6.9202841796875,-0.055007016950845714,-0.026894436666369436,-0.021077640146389603
1775428052113334300,6.930334228515625,-0.13179039690196515,0.006555412992835044,-0.06574683948885648
1775428052123384300,6.94038427734375,-0.1714510839000344,0.05180851317048073,-0.09047065411787479
1775428052133434000,6.95043408203125,-0.2194388697385788,0.08117547743022441,-0.08037709359414875
1775428052143484200,6.960484130859375,-0.1628752709954977,0.09153378983736038,-0.0688293522067368
1775428052153533200,6.970533203125,-0.04133066603690386,0.09262275411784648,-0.018345256040431558
1775428052163583000,6.9805830078125,0.06796674402803182,0.04644377126693725,-0.02450195203926414
1775428052173633000,6.990633056640625,0.13870938251018525,0.015678046125173567,-0.029130744351074097
1775428052183683000,7.00068310546875,0.19253449620008467,-0.048963060611486434,-0.033465449087135495
1775428052193733000,7.010733154296875,0.1916056909173727,-0.143730425542593,-0.0246191486781463
1775428052203783000,7.020782958984375,0.1695896739423275,-0.16416589532792566,0.016838504739291965
1775428052213833200,7.030833251953125,0.12288754400014877,-0.20604922681152818,0.037590529660508035
1775428052223882200,7.04088232421875,0.03936082726866007,-0.21286066039204596,0.03829275964573026
1775428052233932000,7.05093212890625,-0.15063275227695702,-0.170953948032856,0.03337996276076883
1775428052243982000,7.060982177734375,-0.24920535470992325,-0.07435936767458916,0.035417825263924896
1775428052254032100,7.0710322265625,-0.2751040583372116,-0.011725509107112883,0.05768873031549156
1775428052264082200,7.081082275390625,-0.2317518233448267,-0.00696340927183628,0.05677274798173457
1775428052274132000,7.091132080078125,-0.14709259545207024,-0.0011778116077184677,0.02182940836176276
1775428052284182000,7.10118212890625,-0.03071633304208517,-0.03599719605445861,0.01897230189759284
1775428052294232000,7.111232177734375,-0.0509489737316966,-0.036413375639915466,-0.004035246865451336
1775428052304281300,7.12128125,-0.0847358002603054,0.028254034581780434,-0.007971015411801636
1775428052314331100,7.1313310546875,-0.07269786420315504,0.07853343848884105,0.0052033773293718695
1775428052324381200,7.141381103515625,-0.04532938028424978,0.11994622985124587,-0.027089411249198017
1775428052334431200,7.15143115234375,-0.015907470966875552,0.13303484400510787,-0.030631906161643564
1775428052344481300,7.161481201171875,0.005052607214450836,0.12299100437462329,-0.02119757673162967
1775428052354531000,7.171531005859375,0.004566577263176441,0.06923018809258938,-0.0647834743494168
1775428052364581000,7.1815810546875,-0.03836684779524803,0.025416765329241753,-0.130189537576586
1775428052374631200,7.191631103515625,-0.04732493801563978,0.0009545242458581924,-0.16581665820963679
1775428052384680000,7.201679931640625,0.017921148876845837,0.0037520460098981853,-0.11329258064832538
1775428052394730000,7.21172998046875,0.06394874055832624,0.0025046762973070145,-0.07415869400333613
1775428052404780000,7.221780029296875,0.0047404725253582,0.016655366724729538,-0.0631343554355204
1775428052414830000,7.231830078125,-0.0443371543765068,0.022591186514496802,-0.02518642717208713
1775428052424880000,7.241880126953125,-0.03193476892113686,0.039669747087359424,0.014710881593450903
1775428052434930200,7.25193017578125,-0.014131693466007709,0.02557283267378807,0.009215791308507323
1775428052444980200,7.261980224609375,0.042159225815534586,-0.011954641687870025,-0.011048413563147187
1775428052455029000,7.272029052734375,-0.03584901975542307,-0.014574468797445296,0.034518830597586925
1775428052465079000,7.2820791015625,-0.1385275962024927,-0.006404606345295906,0.0013642010252922772
1775428052475129000,7.292129150390625,-0.15549889700859784,-0.02698445303738117,0.018149989196658133
1775428052485179100,7.30217919921875,-0.1788844487711787,-0.007897475251555442,0.0010271510906517504
1775428052495229200,7.312229248046875,-0.11509499042779206,-0.0207569568246603,-0.0069163917923346155
1775428052505279000,7.322279052734375,0.0027940146327018736,-0.05744505775272846,0.045676001764833926
1775428052515329000,7.3323291015625,0.083887951259315,-0.11968553308844565,0.07236380994319916
1775428052525379000,7.342379150390625,0.19862609107345341,-0.1626876394689083,0.027395664186775682
1775428052535428000,7.352427978515625,0.18821867882758378,-0.17359890958368776,-0.02080178234707564
1775428052545478100,7.36247802734375,0.09697831897884607,-0.1310860480248928,-0.060818845034763216
1775428052555528200,7.372528076171875,-0.046556876252591604,-0.091493457826972,-0.09202719937749207
1775428052565578200,7.382578125,-0.1588099212527275,-0.07940846775770187,-0.12170443516280502
1775428052575628000,7.3926279296875,-0.18406331271380186,-0.055142626029253,-0.11673709507901221
1775428052585678000,7.402677978515625,-0.15434972697347402,-0.04682020336389541,-0.11198058473430574
1775428052595728100,7.41272802734375,-0.1380246151164174,-0.03861468507647514,-0.1760625597508624
1775428052605778200,7.422778076171875,-0.12251198868602514,0.016183073037862778,-0.14603483002744613
1775428052615827200,7.4328271484375,-0.06670183865875005,0.041968087157607074,-0.09152235512789338
1775428052625877200,7.442877197265625,0.05759323405176401,0.04128828819990158,-0.05669628521203995
1775428052635927300,7.45292724609375,0.11451163758188486,0.018348142117261886,-0.11981347031705081
1775428052645977000,7.46297705078125,0.13442600610256195,0.0026005378872156143,-0.10831924921516328
1775428052656027100,7.473027099609375,0.10078121839314698,-0.00035831191837787623,-0.053971572955884034
1775428052666077700,7.48307763671875,-0.003896422916650772,-0.03567453997135162,-0.07817147330865264
1775428052676127500,7.49312744140625,-0.04211450989097357,-0.06876607771217823,-0.14221655038092285
1775428052686176500,7.503176513671875,-0.09376520215123892,-0.08936404458284378,-0.1129767561648041
1775428052696226600,7.5132265625,-0.11018909820765256,-0.09121230279803276,-0.14162782724015413
1775428052706276400,7.5232763671875,-0.11818564991950987,-0.052048167145252226,-0.13917893625069408
1775428052716326400,7.533326416015625,-0.07564999200701714,-0.03207856130599975,-0.09136910079494118
1775428052726376400,7.54337646484375,0.041487025642395016,-0.08171966730952263,-0.03999178211595863
1775428052736426500,7.553426513671875,0.09084639209508895,-0.14013269331157208,-0.06481971470657735
1775428052746476300,7.563476318359375,-0.014449381113052367,-0.10324293233156204,-0.061945437911897896
1775428052756526600,7.573526611328125,-0.07445522926449775,-0.038028409621119495,-0.013670907553844152
1775428052766575600,7.58357568359375,-0.06634791065454483,-0.015385785180330276,0.020042013488337396
1775428052776625400,7.59362548828125,-0.06330050578266382,-0.032519875332713125,0.002203610991500318
1775428052786675500,7.603675537109375,-0.10126754060536622,0.01709317362010479,-0.008033303525671363
1775428052796725500,7.6137255859375,-0.1293301442682743,0.08319558508098125,0.028196897567063568
1775428052806775600,7.623775634765625,-0.07510200273543596,0.08502338503003119,0.014373904724046586
1775428052816825300,7.633825439453125,-0.014286007244884966,0.02640460732281208,0.00624294951017946
1775428052826875400,7.64387548828125,-0.027334581649303434,0.020717209336161613,-0.07334376089125871
1775428052836924700,7.653924560546875,-0.05264876338690519,0.06091127255856991,-0.10845204528197645
1775428052846974700,7.663974609375,-0.03286415872573852,0.07353460728824138,-0.12326708136964588
1775428052857024500,7.6740244140625,-0.07788140432089567,0.08974982903003692,-0.11850805027429014
1775428052867074600,7.684074462890625,-0.11045271757990122,0.1092529864013195,-0.13190777620393782
1775428052877124600,7.69412451171875,-0.05153700275272131,0.11031681624054908,-0.14886274692974985
1775428052887174700,7.704174560546875,0.052822366388142104,0.07768938888013363,-0.15181703015808015
1775428052897224400,7.714224365234375,0.08809943147450686,0.04695756600797176,-0.1318165542565286
1775428052907274500,7.7242744140625,0.08969692979902029,0.01636369030177593,-0.09371230292022227
1775428052917323500,7.734323486328125,0.08733809171319007,-0.05583528446853161,-0.06107892074305564
1775428052927373300,7.744373291015625,0.022895722419023514,-0.102870007365942,-0.0675980203134939
1775428052937423400,7.75442333984375,-0.09299129516929387,-0.09530454054772854,-0.0224284702334553
1775428052947473400,7.764473388671875,-0.13893471569865942,-0.07594634460508823,0.02120137612391263
1775428052957523700,7.774523681640625,-0.11704378640800714,-0.04878361239135265,0.03855933816004544
1775428052967573500,7.784573486328125,-0.091791856251657,-0.0641921939253807,0.03514459781311452
1775428052977623600,7.79462353515625,-0.05280716881901026,-0.06436345883905888,0.05955843317750841
1775428052987673600,7.804673583984375,-0.009840133751928807,-0.08072656461894512,0.09642645724974572
1775428052997722400,7.814722412109375,0.014682020825147628,-0.11536533180177211,0.10122691633403301
1775428053007772400,7.8247724609375,-0.08661649944037199,-0.11203004989922045,0.06264711990784853
1775428053017822500,7.834822509765625,-0.14192249933779238,-0.0755593911141157,0.018925430548563597
1775428053027872500,7.84487255859375,-0.11933131282329558,0.007666004583239555,0.025776502019725738
1775428053037922300,7.85492236328125,-0.09926379956752061,0.051585810330510136,0.0460133804930374
1775428053047972400,7.864972412109375,0.03277969531267881,0.07306523621082306,0.019002587438002226
1775428053058022400,7.8750224609375,0.08709580738991499,0.07113105327785015,0.006654525985755026
1775428053068071700,7.88507177734375,0.05075608150810003,0.036513913404941555,0.007699431928806007
1775428053078121500,7.89512158203125,0.01142769520431757,-0.024033202016353606,-0.02914170413650572
1775428053088171500,7.905171630859375,-0.0240682733297348,-0.04124678714573383,-0.05098546981718391
1775428053098221600,7.9152216796875,-0.02438362288922071,0.014207973572611807,-0.024979214162193238
1775428053108271600,7.925271728515625,-0.056037821303308005,0.06088906072676181,0.04469802357815206
1775428053118321400,7.9353212890625,-0.032543840730190274,0.06937105786800384,0.08704645182285457
1775428053128371500,7.945371337890625,0.04084375930279493,0.045591538351774215,0.08005754278358071
1775428053138420500,7.95542041015625,0.041807343637943264,0.031081951484084127,0.03966817618478089
1775428053148470500,7.965470458984375,0.020200199724733827,0.02841010192632675,0.0518286426430568
1775428053158520600,7.9755205078125,-0.002617196761071682,-0.04210778788924217,0.06510729947630316
1775428053168570600,7.985570556640625,-0.07366583245247602,-0.07899813339114188,0.004885507019236683
1775428053178620700,7.99562060546875,-0.11811170790046453,-0.07142156065702437,0.0016030147498473524
1775428053188670500,8.00567041015625,-0.12157441557496786,-0.04935176766812801,0.016303886405937374
1775428053198720500,8.015720458984376,-0.09644991119056939,-0.026187749701738355,0.009232559780217706
1775428053208770600,8.0257705078125,-0.06855448078811169,-0.012018939095735549,0.018988668510504066
1775428053218819600,8.035819580078124,-0.029213235002756115,-0.01390986740887165,0.02971599689312279
1775428053228869400,8.045869384765625,-0.001183072304725647,-0.0643055911719799,0.019118505435250698
1775428053238919400,8.05591943359375,0.029341537557542322,-0.10154840337336063,-0.07646693441309034
1775428053248969500,8.065969482421876,0.018797054928541182,-0.11854396183788776,-0.06505549622382968
1775428053259019500,8.07601953125,0.0031011808857321736,-0.08597615571022033,-0.06845054548960179
1775428053269069300,8.0860693359375,-0.013521452613174915,-0.07842354837357997,-0.0769499686896801
1775428053279119600,8.09611962890625,-0.07017068381309509,-0.04819909050166606,-0.1064547705175355
1775428053289168600,8.106168701171875,-0.13730068475604057,-0.027062778970599173,-0.0684344346050173
1775428053299218400,8.116218505859376,-0.11898059968948363,0.006764087307453155,-0.025365948457457124
1775428053309268500,8.1262685546875,-0.10389642780423164,0.0260638310611248,-0.06006013562195003
1775428053319318500,8.136318603515624,-0.05805149921327829,0.043948447319865226,-0.05305800177492201
1775428053329368600,8.14636865234375,-0.012807751385867596,0.08380874854326248,0.00019449965879321098
1775428053339418400,8.15641845703125,-0.007270867785811424,0.10648118360042572,0.03576031855866313
1775428053349468400,8.166468505859376,-0.07782470569759607,0.07109948909580707,0.045395760051347316
1775428053359518500,8.1765185546875,-0.053015843133628365,0.002503507253527641,-0.053238034516945476
1775428053369567500,8.1865673828125,-0.02839402757436037,0.0089624741345644,-0.00825991535577923
1775428053379617500,8.196617431640625,-0.022165070056915284,0.026302315992116927,-0.028473266823031005
1775428053389667600,8.20666748046875,0.010626900215446948,0.020883213552832604,0.014261786119081079
1775428053399717600,8.216717529296876,0.0761675861403346,-0.016321604725718496,0.010615721234306692
1775428053409767400,8.226767333984375,0.07269377254992723,-0.06554243949055671,-0.02290770511776209
1775428053419817500,8.2368173828125,0.028669921906292438,-0.08169394834637642,-0.01203399053439498
1775428053429867500,8.246867431640625,0.009609247605502604,-0.06845920372009277,0.011983648586645721
1775428053439916500,8.25691650390625,0.02990501665920019,-0.10636953991949558,0.02215133379250765
1775428053449966300,8.26696630859375,0.04635375489592552,-0.1662994002252817,-0.02655618115533143
1775428053460016400,8.277016357421875,-0.031252047353982924,-0.15619827744960785,-0.021287118178606033
1775428053470066400,8.28706640625,-0.06146832191944122,-0.12480594484210014,-0.018186923673562703
1775428053480116500,8.297116455078125,-0.06044307052493095,-0.10373042358756064,-0.04009206415265798
1775428053490166500,8.30716650390625,-0.037293373344838614,-0.09664309567511081,-0.044008726139739156
1775428053500216600,8.317216552734376,0.01810059709697962,-0.04595452644526958,-0.044766924095898865
1775428053510266600,8.3272666015625,0.044697512121498584,-0.03281038271188736,-0.07671784043423831
1775428053520315400,8.3373154296875,0.06625292584747075,-0.02956219457089901,-0.12020751113593578
1775428053530365400,8.347365478515625,0.0870385242447257,-0.06074234573245048,-0.10827263359446078
1775428053540415500,8.35741552734375,0.0556502832904458,-0.04873392803072929,-0.10371504335533827
1775428053550465500,8.367465576171876,-0.031076398526132105,-0.002145195335149765,-0.12841847278345375
1775428053560515300,8.377515380859375,-0.08652765211313962,0.04154956948459148,-0.11198069433216006
1775428053570565400,8.3875654296875,-0.08724924438595771,0.06881751563847065,-0.09034468965064733
1775428053580615400,8.397615478515625,-0.041183366520702834,0.08443652505278587,-0.10228457216080278
1775428053590664400,8.40766455078125,0.05435352147817611,0.0965478186070919,-0.10719075664188712
1775428053600714500,8.417714599609376,0.044152737720310684,0.115029816237092,-0.07137235122043639
1775428053610764500,8.4277646484375,-0.00538227756023407,0.08612462427020072,-0.08934756837207823
1775428053620814600,8.437814697265624,-0.05238397497087717,0.06294540873467921,-0.07782035831604152
1775428053630864400,8.447864501953125,-0.08941869737952947,0.04057341792881489,-0.06267232741434127
1775428053640914400,8.45791455078125,0.0632686493396759,-0.01727437540590763,-0.040096594197303055
1775428053650964500,8.467964599609376,0.16188567543625831,-0.05364508094787598,-0.046831418877653776
1775428053661013500,8.478013427734375,0.07846972560286522,-0.053612347722053526,-0.059570598539337515
1775428053671063300,8.488063232421876,0.029016835647821426,-0.0573778377354145,-0.05743132148832082
1775428053681113000,8.498113037109375,-0.03440583520978689,-0.05078618438541889,-0.04999379189871251
1775428053691163100,8.5081630859375,-0.10402414583712816,-0.028226562052965164,-0.026346337796933947
1775428053701213200,8.518213134765626,-0.1289765085250139,-0.020474048230051993,-0.01095857985522598
1775428053711263200,8.52826318359375,-0.09571692074090242,-0.03461480178534984,-0.008057743847183883
1775428053721313000,8.53831298828125,-0.033385552251338955,-0.05646773715317249,-0.015421769809164106
1775428053731362000,8.548362060546875,0.014790741896629333,-0.07062135019004344,-0.039749388194829226
1775428053741412000,8.558412109375,0.03969166665822267,-0.052068625411391255,-0.006385901644825935
1775428053751462000,8.5684619140625,0.0872518747344613,-0.048072249251604075,0.0034363676568493246
1775428053761512000,8.578511962890625,0.038923312634229656,-0.07880757925510407,-0.009757314306683838
1775428053771562000,8.58856201171875,0.00995411552041769,-0.07194529227018356,-0.0216251179613173
1775428053781612000,8.598612060546875,0.011610066033899783,-0.09258768280446529,-0.03940945218335837
1775428053791662000,8.608662109375,-0.03358516647666693,-0.10396598590910434,-0.05695044263619929
1775428053801712000,8.618712158203126,-0.0804009859263897,-0.10556816040873528,-0.062347260178439314
1775428053811761200,8.62876123046875,-0.11218407141715288,-0.09630465750098229,-0.03194346368424594
1775428053821811200,8.638811279296876,-0.136149176633358,-0.09215747469365597,-0.07687460189852863
1775428053831861000,8.648861083984375,-0.14987082799375057,-0.05985153437256813,-0.055603631137125194
1775428053841911000,8.6589111328125,-0.14251315870732068,-0.010986088916659354,-0.012536240968108176
1775428053851961000,8.668961181640626,-0.10903875912874936,-0.03175473617911339,-0.06608494886942208
1775428053862011100,8.67901123046875,-0.022422551949322224,-0.013916297149658202,-0.06673785982020199
1775428053872061000,8.68906103515625,0.038758185200393196,0.019751579174399375,-0.04319762895256281
1775428053882110200,8.699110107421875,0.03328764483481646,-0.0053559740751981735,-0.061059375792369246
1775428053892160300,8.70916015625,0.04088584487885236,-0.03117372142076492,-0.039874768140166994
1775428053902210000,8.7192099609375,0.03671995737105608,-0.10598258642852305,-0.06731945910044014
1775428053912260000,8.729260009765625,0.004628536583483219,-0.10458967076539993,-0.054178822498396034
1775428053922310100,8.73931005859375,-0.013888240098953246,-0.08490355804264545,0.0051413449438288805
1775428053932360200,8.749360107421875,-0.02190904946923256,-0.07449848388433455,0.01635430141892284
1775428053942410000,8.759409912109374,-0.05896539918780327,-0.06804653126597404,0.014059139686450362
1775428053952460000,8.7694599609375,-0.038516193138062954,-0.050348962011933326,0.04706150130648166
1775428053962509000,8.779509033203125,-0.021899989379942416,-0.04867839845120907,0.05968768558036536
1775428053972558800,8.789558837890626,-0.029430677145719526,-0.06869827317297458,0.02605922795124352
1775428053982609200,8.799609130859375,-0.036034313194453715,-0.06075754330158233,0.0257046788925305
1775428053992659200,8.8096591796875,-0.04430354436784983,-0.04968085349202156,0.01807089607845992
1775428054002709200,8.819709228515626,-0.09212415694594382,-0.050391047587990755,-0.004919263158366083
1775428054012759000,8.829759033203125,-0.1452291396677494,-0.026191256833076475,-0.03198050775900483
1775428054022809000,8.83980908203125,-0.1272799337401986,0.0013005612045526504,-0.005338584548979997
1775428054032858000,8.849858154296875,-0.07812368864417076,0.021007716715335845,-0.0042258010014891625
1775428054042908200,8.859908203125,-0.03573562250882387,0.047796939441561694,0.0021272212870419023
1775428054052958000,8.8699580078125,-0.00487725064754486,0.03613105156719684,0.02637187409698963
1775428054063008000,8.880008056640625,0.02500584644079208,-0.0011298808127641678,0.012846220232732594
1775428054073058000,8.89005810546875,-0.029446751497685907,-0.0264081144541502,0.022678170678205788
1775428054083108000,8.900108154296875,-0.08720920463651419,-0.01785772825181484,0.01577061977945268
1775428054093158000,8.910157958984374,-0.09414718720614909,0.029626491978764533,-0.006305310689285398
1775428054103207200,8.920207275390625,-0.1364943368092179,0.09650281042158602,-0.012968312242440879
1775428054113257200,8.93025732421875,-0.08331453528553247,0.1275789166867733,-0.028629114971868694
1775428054123307000,8.94030712890625,0.030869770038127898,0.15608838733434677,-0.021130466312170026
1775428054133357000,8.950357177734375,0.09577858780026435,0.16096154632866383,0.02205455888714641
1775428054143407000,8.960406982421874,0.09178162711858749,0.11935001752376556,-0.011774170554429291
1775428054153457200,8.97045703125,0.020246669214963913,0.12194529471397399,0.0038068084044381974
1775428054163507000,8.9805068359375,-0.054201253525912756,0.11553659671545027,0.011806538454070687
1775428054173556000,8.990555908203126,-0.04416647398471832,0.10813888767957687,0.01169409105554223
1775428054183606300,9.000606201171875,-0.003918050226569175,0.10123568416237831,0.038688371367193754
1775428054193656000,9.010656005859374,0.019525076942145822,0.07490063494443892,0.036879203053377566
1775428054203706000,9.0207060546875,-0.026070553062856196,0.05275251602232456,-0.01852766340263188
1775428054213756200,9.030756103515625,-0.06917319720834493,0.05436813452541828,0.0432211924912408
1775428054223806200,9.04080615234375,-0.0796145117238164,0.0283382057338953,0.0264249925237149
1775428054233856300,9.050856201171875,-0.07224719782620669,-0.03272036634087563,0.003763371121510863
1775428054243905000,9.060905029296874,0.037922611159086225,-0.06848492268323898,0.002212378819845617
1775428054253955000,9.070955078125,0.06249912627190351,-0.09373568379580974,-0.019750556261092424
1775428054264005000,9.081005126953125,-0.007739654341340064,-0.07570259897708892,0.01716306051854044
1775428054274055000,9.091054931640626,-0.06705284405350685,-0.0985392846852541,0.009877397022396326
1775428054284105000,9.10110498046875,-0.1438824012339115,-0.0732248106867075,-0.004074044505879283
1775428054294155000,9.111155029296874,-0.16701748536676167,-0.046592239826917646,0.0012113850837573408
1775428054304205000,9.121205078125,-0.15320231050401925,-0.056040451651811596,-0.004701674884930253
1775428054314255000,9.131255126953125,-0.15038374595195053,-0.04612228422760963,0.04171590249482542
1775428054324304100,9.14130419921875,-0.11493073977679014,-0.08100070538520812,0.06739804076198488
1775428054334354200,9.151354248046875,-0.06473112310767173,-0.13488251769840717,-0.002548223178088665
1775428054344404000,9.161404052734374,-0.033576983170211315,-0.16263035632371903,-0.030932423478178678
1775428054354454000,9.1714541015625,-0.04873597385734319,-0.15384674588739872,-0.03599588088020682
1775428054364504000,9.181504150390625,-0.08420008594840765,-0.14954992547631263,-0.03090619305837899
1775428054374554000,9.19155419921875,-0.09505699552744626,-0.18065116618275642,-0.056068472169898444
1775428054384604000,9.20160400390625,-0.05674801539927721,-0.18525836771726606,-0.07169204816147684
1775428054394653200,9.211653076171874,-0.0025847557961940766,-0.16744155599772928,-0.025908238640613854
1775428054404703200,9.221703125,0.004191021949052811,-0.17447569241821764,-0.011427220280282199
1775428054414753300,9.231753173828125,-0.02768763287067413,-0.1344756904631853,-0.02874536176268011
1775428054424803000,9.241802978515626,-0.06117693775743246,-0.07825929772257804,-0.005964388297125697
1775428054434853000,9.25185302734375,-0.05273644167035818,-0.04479308145046234,-0.015376798156276345
1775428054444903200,9.261903076171874,-0.049643444091081616,-0.038030163186788556,-0.0440137676410377
1775428054454953200,9.271953125,-0.054635553289949894,-0.0106704470962286,-0.040457974855601785
1775428054465002000,9.282001953125,0.020157237365841865,-0.009132570004463195,-0.06087068481985479
1775428054475052000,9.292052001953126,0.005500058721005916,-0.019859131202101706,-0.06462737047225237
1775428054485102000,9.30210205078125,-0.07256926938742399,-0.02684767491519451,-0.05280399048123508
1775428054495151900,9.31215185546875,-0.0908075213894248,-0.03665010700523853,-0.028281324447505175
1775428054505202200,9.3222021484375,-0.09770517194867133,-0.03445405826568603,-0.010356120450049638
1775428054515252200,9.332252197265625,-0.07562631887048482,-0.038323008653521534,0.0034511998998001214
1775428054525302300,9.34230224609375,-0.03253039672672749,-0.02579845812320709,0.019816205375827848
1775428054535351000,9.35235107421875,-0.02298252391964197,0.009727028766274452,-0.009053513418883085
1775428054545401000,9.362401123046874,-0.0351505160972476,0.049582069292664524,-0.012521043398976325
1775428054555451100,9.372451171875,-0.031466859148442744,0.09517769929766655,-0.02790350411105901
1775428054565501000,9.3825009765625,-0.001888297964632511,0.06292904212176799,-0.036545002662949265
1775428054575551000,9.392551025390626,0.012463467992842196,0.024482699349522588,-0.08744542454518377
1775428054585601000,9.40260107421875,-0.0017491817548871038,0.0005681552767753601,-0.0938448432587087
1775428054595651000,9.412651123046874,-0.05116553909182548,0.03123860335052013,-0.1061571027452126
1775428054605700000,9.4227001953125,-0.07695932103991508,0.07689034745693206,-0.09974069636426866
1775428054615750100,9.432750244140625,-0.037465515041351316,0.11101415085494518,-0.08248374701719731
1775428054625800200,9.44280029296875,0.03086480160206556,0.10131225652992724,-0.0765631978617981
1775428054635850200,9.452850341796875,0.09468582412749528,0.05911152966022491,-0.10866572456527501
1775428054645900000,9.462900146484374,0.10186989041268825,0.020882629030942915,-0.055292519361339505
1775428054655950000,9.4729501953125,0.06723696844875812,-0.004113865059614181,-0.013336341837234793
1775428054666000100,9.483000244140625,0.03399842345267534,-0.03765139300227165,-0.023992760408110915
1775428054676048600,9.493048583984375,-0.00045154315978288646,-0.032329321196675295,-0.03753138335179537
1775428054686098700,9.5030986328125,-0.005435761313140392,0.011857611054182052,-0.02915149487815797
1775428054696149000,9.51314892578125,-0.032790508967638014,0.04994388834238052,-0.03099189858045429
1775428054706199000,9.523198974609375,-0.02534399235397577,0.06551847409307957,-0.036894254492036996
1775428054716248800,9.533248779296875,-0.021609774261713028,0.044913492959737775,-0.061769716018810865
1775428054726299000,9.543298828125,-0.04458148452639579,0.03194645935893058,-0.07674655507206916
1775428054736349000,9.553348876953125,-0.05527998867332935,0.011859364619851112,-0.09689341717436908
1775428054746397700,9.563397705078126,-0.03747252930402756,0.001342062258720398,-0.1024657008813694
1775428054756447700,9.57344775390625,-0.01816138737350702,0.032629765447974204,-0.0909311112364754
1775428054766497800,9.583497802734374,-0.012556699234247208,0.03928104003071785,-0.09471819202713667
1775428054776547800,9.5935478515625,0.040459436160326004,0.03853285201191902,-0.06209759626630693
1775428054786597600,9.60359765625,0.03287935629487038,0.019386837515234946,-0.0525873885884881
1775428054796647700,9.613647705078124,-0.036621173171699044,-0.014506079736351965,-0.06239051479827612
1775428054806697700,9.62369775390625,-0.03853080618530512,-0.03191840230822563,-0.07701905187051743
1775428054816747000,9.6337470703125,-0.061569151945412154,-0.03053717708289623,-0.07307119102757424
1775428054826796800,9.643796875,-0.09553571895509957,-0.03645078504085541,-0.09696483844276517
1775428054836846800,9.653846923828125,0.02424567572325468,-0.030585692399740218,-0.09297291926238685
1775428054846897000,9.66389697265625,0.0871735488012433,-0.03005260843634605,-0.11592450005449353
1775428054856947000,9.673947021484375,0.06410685372948646,-0.020152561190724373,-0.10726342001929878
1775428054866996700,9.683996826171875,-0.000358019657433033,0.013800561815500259,-0.09738167561534791
1775428054877046800,9.694046875,-0.06181465113908052,0.040347207957506175,-0.09730780666153878
1775428054887095800,9.704095703125,-0.026808804209530353,0.020206921726465224,-0.14250376982446758
1775428054897145900,9.714145751953126,0.02400134557336569,-0.0016115268498659134,-0.12294248905777931
1775428054907196000,9.72419580078125,0.08503945938199758,-0.027384266009926793,-0.05865158399827778
1775428054917246000,9.734245849609374,0.11648673704713583,-0.05332476295232773,-0.03355151993539184
1775428054927296000,9.7442958984375,0.11290946308225393,-0.1069260047584772,-0.04269592650812119
1775428054937345800,9.754345703125,0.04244885641187429,-0.1335954004973173,-0.04833338440582156
1775428054947395800,9.764395751953124,-0.03787847975641489,-0.12743103264868258,-0.052440673594176763
1775428054957444900,9.77444482421875,-0.10177578238844871,-0.11917232286930084,-0.05785911844633519
1775428054967494700,9.78449462890625,-0.11752134079188108,-0.11494330699741839,-0.034857524500042196
1775428054977544700,9.794544677734375,-0.1195987315878272,-0.08890694846510887,-0.04512925460226833
1775428054987594800,9.8045947265625,-0.13006284245699642,-0.07768003652989863,-0.014836517267115414
1775428054997644800,9.814644775390626,-0.10540274071395396,-0.034278701698780056,0.007286174952797591
1775428055007694800,9.82469482421875,-0.08501432494074106,-0.017331658551096914,-0.004629157637991011
1775428055017745000,9.834744873046875,-0.040326749691367146,0.026227497190237044,-0.026341186697781085
1775428055027794000,9.8447939453125,-0.007993629102408886,0.08004150496423244,-0.01626918041873723
1775428055037844000,9.854843994140625,-0.015220657746493815,0.11857318793237209,-0.009593976971134543
1775428055047893800,9.864893798828126,-0.048726036985218525,0.12879939839243887,-0.017643099120445548
1775428055057943800,9.87494384765625,-0.003942307884991169,0.09980535909831523,0.012007723581977188
1775428055067993900,9.884993896484374,-0.027879648311436175,0.048398412466049194,-0.048644971105642615
1775428055078044000,9.8950439453125,-0.10189765520244837,0.044938627400994295,-0.07420625947210938
1775428055088093700,9.90509375,-0.09693623340278863,0.027408231407403946,-0.047862953882478174
1775428055098143000,9.91514306640625,-0.07537000602185726,0.030282910060882566,-0.057019598882272836
1775428055108193000,9.925193115234375,-0.056872810822725293,0.06371171693205833,-0.07995857592113316
1775428055118242800,9.935242919921874,-0.02253945632725954,0.10303601158261298,-0.04189925970509648
1775428055128292900,9.94529296875,0.0125613754093647,0.08055179257392883,0.007265826284512877
1775428055138343000,9.955343017578125,0.035034196241199966,0.05553893187046051,0.03618910189736634
1775428055148393000,9.96539306640625,0.06348521469980478,0.016205869391560553,0.010216894642449915
1775428055158442800,9.97544287109375,0.10113719222396611,-0.06977496249377727,-0.0012588409546762703
1775428055168491800,9.98549169921875,0.098619656445086,-0.1413642809331417,-0.05469557638149708
1775428055178541800,9.995541748046875,0.10072335072606801,-0.14922317773997784,-0.02198068993333727
1775428055188591600,10.005591552734375,0.05607493844330311,-0.1262666650444269,-0.019475392581522463
1775428055198641700,10.0156416015625,0.0471387677937746,-0.1190735386699438,-0.0018746347654610871
1775428055208691700,10.025691650390625,0.04138502657264471,-0.089057755112648,0.045994456596858795
1775428055218742000,10.035741943359374,0.00009615385085344313,-0.07404255681037902,0.051678895441442725
1775428055228790800,10.045790771484375,-0.09761369427293538,-0.054957332590222355,0.03495389754660427
1775428055238840800,10.0558408203125,-0.10496639512330293,-0.013404255974292754,0.03588982668984681
1775428055248891000,10.065890869140626,-0.13026508703082798,0.008773673564195632,0.013586517206020653
1775428055258941000,10.07594091796875,-0.13718115002959966,0.0534434208959341,0.02376413928400725
1775428055268990700,10.08599072265625,-0.10300210931301117,0.07034604038000107,0.04786657061167061
1775428055279040800,10.096040771484375,-0.032063363736867904,0.03863280525505543,-0.0059573375018313526
1775428055289090800,10.1060908203125,-0.01752221268713474,0.04309387631714344,-0.040324302005954084
1775428055299139800,10.116139892578126,-0.00015343699604272843,0.05489771135747432,-0.04243373190797865
1775428055309190000,10.12618994140625,0.07414426361918448,0.023155250138044356,-0.022548552949167786
1775428055319240000,10.136239990234374,0.1312675420716405,-0.044563948869705196,-0.012852796103991567
1775428055329290000,10.1462900390625,0.04552139572501182,-0.061794485133886336,-0.08303370905015617
1775428055339339800,10.15633984375,-0.10658289040923118,-0.048697103151679036,-0.11729370604846626
1775428055349389800,10.166389892578126,-0.13181786943078042,-0.015803718331456183,-0.09640183426514268
1775428055359440000,10.17643994140625,-0.09222469471096992,-0.021972177833318708,-0.004948452720232308
1775428055369488600,10.186488525390626,-0.05386866057068109,-0.03529576978683471,-0.022799751231260598
1775428055379538700,10.19653857421875,-0.04528086496740579,-0.014809446597099303,-0.06857205297742039
1775428055389588700,10.206588623046875,-0.10593611693829297,0.03274725434780121,-0.05284037696886807
1775428055399638800,10.216638671875,-0.11725538333207368,0.037115386429429055,-0.03767912125941366
1775428055409688800,10.226688720703125,-0.14367518822401762,-0.00497486580312252,-0.032993776454776524
1775428055419739000,10.23673876953125,-0.194954709084332,-0.024103344643115997,-0.08395374650452285
1775428055429789000,10.246788818359375,-0.11296616170555353,-0.004590250399708748,-0.057380212355591355
1775428055439838000,10.256837890625,-0.020923253302276134,-0.019978958189487455,-0.003297032251395285
1775428055449887700,10.2668876953125,-0.06240326468199491,-0.016770517536997796,-0.045381950721703465
1775428055459937800,10.276937744140625,-0.10000029714852571,0.00014729951620101928,-0.0562794480394572
1775428055469987800,10.28698779296875,-0.15969547191560268,0.02328969017267227,-0.022981793267279862
1775428055480038000,10.297037841796875,-0.16073913574963808,0.008549801680445671,0.01716609272584319
1775428055490087700,10.307087646484375,-0.09296528394520283,-0.03901332900524139,0.04909771984182298
1775428055500137700,10.3171376953125,-0.03114683341383934,-0.11648878287374972,0.07679503385629505
1775428055510187000,10.32718701171875,-0.026791268552839753,-0.16953531340658665,0.08021664233542979
1775428055520236800,10.33723681640625,-0.042352994821965695,-0.17905600594580173,0.06587210983633994
1775428055530286800,10.347286865234375,-0.030181787773966788,-0.1914835258424282,0.061070810501836235
1775428055540337000,10.3573369140625,-0.024843057094514367,-0.1706739620476961,0.08197831824570893
1775428055550387000,10.367386962890626,-0.052964405207335946,-0.16215806263685226,0.09591072627995163
1775428055560436700,10.377436767578125,-0.08617050923854112,-0.15568798983991144,0.10664547078404575
1775428055570485800,10.38748583984375,-0.10089081624746322,-0.1506844824641943,0.1117149926006794
1775428055580535800,10.397535888671875,-0.12542641482800246,-0.14491700497865675,0.05148713572900742
1775428055590585900,10.4075859375,-0.13848054219037292,-0.10939093356728553,0.03015668986532837
1775428055600635600,10.4176357421875,-0.13466244520694018,-0.07337503281235694,0.05059760301075875
1775428055610686000,10.42768603515625,-0.04651712876409292,-0.04309446083903312,0.0681738474400714
1775428055620736000,10.437736083984374,0.00047609307914972304,-0.04495850114524364,0.056155858192406594
1775428055630786000,10.4477861328125,-0.026325404606759546,-0.0427466703146696,0.013374445357918738
1775428055640834800,10.457834716796874,-0.0746270787000656,-0.028967151287198064,-0.015782858206517994
1775428055650884900,10.467884765625,-0.09539981761574745,0.021198855373263357,0.01952127754986286
1775428055660935000,10.477934814453125,-0.14852847347408532,0.012807459124922751,0.006998955509252846
1775428055670985700,10.48798583984375,-0.14672931509763001,0.04081599451303482,0.03908518866505473
1775428055681035500,10.498035400390625,-0.08716858036518096,0.07402502115368842,0.07259305212181061
1775428055691085600,10.50808544921875,-0.042186990605294704,0.04888473467826843,0.07348737061303108
1775428055701134600,10.518134521484376,-0.0317561974838376,0.021844752061367035,0.04156348841208964
1775428055711184400,10.528184326171875,-0.007774141132831573,0.010740005201101303,0.048967809851840134
1775428055721234700,10.538234619140624,-0.005853402203321457,-0.01466273160278797,0.04410283416397869
1775428055731284700,10.54828466796875,0.007334872932732105,-0.032845454025268554,0.009184555920027196
1775428055741334800,10.558334716796875,0.015547405482828616,-0.013113164073228835,-0.0054618821350857615
1775428055751384600,10.568384521484376,0.017914719136059284,0.009327215793728827,0.004984364283829927
1775428055761434600,10.5784345703125,-0.003097673754394054,0.025575755283236502,-0.004300838999077678
1775428055771483600,10.588483642578124,-0.027193419612944126,0.043700610038638114,0.0027851006738841533
1775428055781533400,10.598533447265625,-0.04034136273860931,0.037597032466530796,0.0021348566042259333
1775428055791583500,10.60858349609375,-0.05890986960828304,-0.0011526771664619444,0.0008190978305414318
1775428055801633500,10.618633544921876,-0.07905980045050383,0.004445288971066475,0.014107253144495189
1775428055811683600,10.62868359375,-0.038733050759136675,0.0033212533771991726,0.04668587292712181
1775428055821733400,10.6387333984375,-0.07285510059148073,0.02404781506359577,0.08159881740882992
1775428055831783400,10.648783447265625,-0.12132073307484388,0.016789806759357453,0.05457640698123723
1775428055841832700,10.658832763671874,-0.07445844413489103,0.058770753398537635,0.04787216010224074
1775428055851882800,10.6688828125,-0.05454319883137941,0.0516787493109703,0.02957099893186241
1775428055861932500,10.6789326171875,-0.04479162014573812,0.0531646039545536,0.015071787327714263
1775428055871982600,10.688982666015624,-0.05059533798843622,0.050208676758408545,-0.004437105664610862
1775428055882032600,10.69903271484375,-0.07010171023011207,0.03934124578535556,-0.02851670410595834
1775428055892082700,10.709082763671875,-0.10573299558162688,0.017663082462549207,-0.0357338324105367
1775428055902131500,10.71913134765625,-0.06030190848857164,-0.028859599259495734,-0.06367876451052724
1775428055912181500,10.729181396484375,0.0016848843470215796,-0.014069441884756088,-0.0377138637792319
1775428055922231600,10.7392314453125,0.035810733571648594,-0.009098083212971687,-0.013002543305605649
1775428055932281600,10.749281494140625,0.04646306048929691,-0.02665069103837013,-0.043053617371991273
1775428055942331600,10.75933154296875,0.04015051634162664,-0.05018412683904171,-0.08240527495350689
1775428055952381700,10.769381591796876,-0.00936199484616518,-0.053747956800460815,-0.12307364115677773
1775428055962431700,10.779431640625,-0.018194705121219158,-0.08490180447697639,-0.1579626933062449
1775428055972480500,10.78948046875,0.0003527589604258537,-0.09650281042158602,-0.1764432296315208
1775428055982530600,10.799530517578125,-0.07249532736837863,-0.07817804917991161,-0.135722548719123
1775428055992580600,10.80958056640625,-0.13330284729152916,-0.07275251699984073,-0.12371230438649654
1775428056002630400,10.81963037109375,-0.10475246011167764,-0.07393968095779418,-0.11153623850028961
1775428056012680400,10.829680419921875,-0.05395400076657533,-0.02557224815189838,-0.11406652416288852
1775428056022730500,10.83973046875,0.053205812747776506,-0.0323468568533659,-0.0840924608554691
1775428056032779800,10.84977978515625,0.14574322666972875,-0.06345920347571372,-0.06754906660523265
1775428056042829600,10.85982958984375,0.0711529728487134,-0.066480012601614,-0.1065904891937971
1775428056052879600,10.869879638671875,0.008091244257986544,-0.08523439743220805,-0.10433248113393782
1775428056062929700,10.8799296875,-0.08098287746757268,-0.056367783910036086,-0.09556110912468284
1775428056072979700,10.889979736328126,-0.09823971721678972,0.0005213935256004333,-0.09205953074451535
1775428056083029500,10.900029541015625,-0.06836684926152228,0.046998482540249825,-0.07572524920031427
1775428056093079600,10.91007958984375,-0.034898002640902995,0.056499301335215565,-0.0018798954624682663
1775428056103128600,10.920128662109375,-0.02462210782021284,0.023218963024020194,0.011797697560489177
1775428056113178400,10.930178466796875,0.010904548113048076,-0.030478140372037887,-0.08448273881468922
1775428056123228700,10.940228759765626,0.04627689026743173,-0.03344809609353542,-0.058249579068645835
1775428056133278700,10.95027880859375,0.014205050963163376,0.0006032265901565551,-0.046474970122799275
1775428056143328800,10.960328857421874,-0.04671528168469667,0.050859249621629715,-0.074893036159873
1775428056153378600,10.970378662109376,-0.05783405707031488,0.06488251427710055,-0.04910970254056155
1775428056163427600,10.980427490234375,-0.05087123232036829,0.05605448017716407,-0.03109689332488924
1775428056173477600,10.9904775390625,-0.05350859508663416,0.032649639192223544,-0.025261319039203225
1775428056183527400,11.00052734375,-0.03210574157387018,0.018299626800417898,-0.028903986390493807
1775428056193577500,11.010577392578124,-0.029850656123459336,0.036084874337911604,0.019193762628547845
1775428056203627500,11.02062744140625,-0.023527882842719554,0.043012627774477,0.028529490522295236
1775428056213677600,11.030677490234375,-0.014265841239690779,0.02078969005048275,0.023639453458413482
1775428056223727400,11.040727294921876,0.03480272557288408,-0.015600304713845253,0.027405089602246878
1775428056233776600,11.050776611328125,0.06453852314502001,-0.029506664991378783,0.026998262367025017
1775428056243826700,11.06082666015625,0.08210515949577092,-0.06625497167408466,-0.006391710331104696
1775428056253876700,11.070876708984375,0.11093173326849937,-0.10396890851855277,-0.026181794884987175
1775428056263926500,11.080926513671875,0.06946604267507792,-0.12784545866847039,-0.04622610992826521
1775428056273976600,11.0909765625,-0.0144327222391963,-0.13998539379537106,-0.08984839403368532
1775428056284026600,11.101026611328125,-0.040652036122977735,-0.1257739130914211,-0.07102916380595416
1775428056294075400,11.111075439453124,-0.01516249781847,-0.11701894422769546,-0.06217990425489842
1775428056304125400,11.12112548828125,-0.009397942942380905,-0.1350952836662531,-0.09160586869288236
1775428056314175500,11.131175537109375,0.006619418139755725,-0.12711129917502403,-0.12264825535155832
1775428056324225800,11.141225830078126,-0.02338467497974634,-0.07322597973048686,-0.068814519963786
1775428056334275600,11.151275634765625,-0.03235124076753854,-0.049694297495484346,-0.054634566909261044
1775428056344325600,11.16132568359375,-0.06131663848906755,-0.045506782677769655,-0.049446460214257235
1775428056354375700,11.171375732421875,-0.07498714418411255,-0.022282558956742287,-0.051563854227028784
1775428056364424400,11.181424560546875,-0.05858545995950699,0.0014659808993339539,-0.05272599334158003
1775428056374474500,11.191474609375,-0.017058394567668438,0.05279167898893356,0.009183788735046982
1775428056384524500,11.201524658203125,-0.006011223113536834,0.05329319877028465,0.028120507862605153
1775428056394574600,11.21157470703125,-0.01572597692012787,0.03285889802873134,-0.01370923027023673
1775428056404624600,11.221624755859375,-0.0029287469282746315,0.004517185163497924,-0.02635452110338956
1775428056414674400,11.23167431640625,-0.004639350238442421,-0.01473813492655754,-0.038707806720025835
1775428056424723700,11.2417236328125,0.015629823069274424,-0.02652618787586689,-0.0632842122349888
1775428056434773800,11.251773681640625,0.005630991624295712,-0.03568973754048347,-0.06594977818243206
1775428056444823600,11.261823486328124,-0.038541327579319475,-0.01394435420036316,-0.039135969004221255
1775428056454873600,11.27187353515625,-0.028261633366346357,0.010099953731894493,-0.02749561742991209
1775428056464923600,11.281923583984375,-0.007530103243887424,0.03251403011381626,-0.037698373949155206
1775428056474973700,11.2919736328125,-0.013996961170434951,0.05994096622169017,-0.04257540540099144
1775428056485023500,11.3020234375,-0.059958794139325616,0.04975684133768082,-0.025112339022569357
1775428056495072500,11.312072509765626,-0.05938157877326011,0.02565466573834419,-0.025680202038399873
1775428056505122600,11.32212255859375,-0.0575567014336586,-0.016805004328489304,-0.02237973572090268
1775428056515172600,11.332172607421874,-0.1337877081990242,-0.04779986205101013,-0.025910284467227755
1775428056525222700,11.34222265625,-0.07096475680023431,-0.06043254913091659,-0.03695537356212735
1775428056535272700,11.352272705078125,-0.029339783991873262,-0.035414427730441095,-0.04687690198719501
1775428056545322800,11.36232275390625,0.03183890733122825,-0.016904957571625707,-0.01954948073104024
1775428056555371500,11.37237158203125,0.062865621496737,-0.0396709161311388,-0.032722667895816265
1775428056565421600,11.382421630859374,0.07287497433573008,-0.1044774425625801,-0.06840966548994183
1775428056575471600,11.3924716796875,-0.016577040791511535,-0.09334873030483722,-0.06363039532415568
1775428056585521700,11.402521728515625,-0.1605447822213173,-0.04811842648088932,-0.08499715461023151
1775428056595571500,11.412571533203124,-0.23726298798173664,-0.014940964022278784,-0.13880374626275152
1775428056605621500,11.42262158203125,-0.2061903888478875,0.04495674757957458,-0.10730002570264041
1775428056615670800,11.4326708984375,-0.11775310372114181,0.10337386523485183,-0.06753259039446712
1775428056625720600,11.442720458984375,0.06907528979182243,0.114794838437438,-0.06205649707093835
1775428056635770600,11.4527705078125,0.03841623989492655,0.09153495888113974,-0.09451298831123858
1775428056645820700,11.462820556640626,0.008647124575078487,0.028812837508320806,-0.12976331152115017
1775428056655870700,11.47287060546875,-0.010369418323040008,-0.015436638584733008,-0.1151816823305562
1775428056665920500,11.48292041015625,-0.03527151212841272,-0.0052162733435630795,-0.06493314848579466
1775428056675969800,11.4929697265625,-0.03474193529635668,-0.006734276691079139,-0.07128025249019265
1775428056686018800,11.503018798828125,-0.017563421480357645,-0.015418518406152725,-0.04616915557663887
1775428056696068900,11.51306884765625,0.03485153315067291,-0.039274610289931296,-0.026697781583108007
1775428056706119000,11.523118896484375,0.04209755875617265,-0.09746668701767922,-0.04226739889774471
1775428056716169000,11.5331689453125,0.04878916534930467,-0.15138824681937693,-0.04282919749896973
1775428056726219000,11.543218994140625,0.0014335399344563484,-0.16942717685699463,-0.036984307395666834
1775428056736268800,11.553268798828125,-0.069253276707232,-0.17109481780827043,-0.05641976982560008
1775428056746317800,11.56331787109375,-0.07625000372678041,-0.15127543409466743,-0.028637882800213992
1775428056756368000,11.573367919921875,-0.07646686134785413,-0.1472889948070049,-0.007440050340257584
1775428056766417700,11.583417724609374,-0.07804419366717338,-0.1366717392027378,-0.033032318366877735
1775428056776467700,11.5934677734375,-0.06233721370846033,-0.1541010129094124,-0.029837723576650023
1775428056786517800,11.603517822265625,-0.06945435223728418,-0.1559428413838148,-0.04972268333975225
1775428056796567800,11.61356787109375,-0.08893646682053803,-0.13264379886090755,-0.08676489493511616
1775428056806616800,11.623616943359375,-0.10167670592814683,-0.06685527565479278,-0.06376432390213012
1775428056816667000,11.6336669921875,-0.09435819960832595,-0.03350421019494533,-0.01632606170512736
1775428056826717000,11.643717041015625,-0.12236147429943084,0.00698737466931343,0.0321976941736415
1775428056836766700,11.6537666015625,-0.10903525199741125,0.0572995118021965,0.009905198344774544
1775428056846816800,11.663816650390626,-0.016560966439545154,0.07808744828701018,0.009875460793636739
1775428056856866800,11.67386669921875,0.03025572979301214,0.011990882045030593,-0.011556034291721879
1775428056866915800,11.683915771484376,0.029327801293134687,-0.02076514013111591,-0.05738266004100442
1775428056876966000,11.6939658203125,0.043515024338662625,-0.01482873581945896,-0.03331179289538413
1775428056887016000,11.704015869140624,0.0296431508526206,-0.02116612214744091,-0.017664543767273427
1775428056897066000,11.71406591796875,-0.036193595409393306,0.02262918043732643,-0.0075990037616342305
1775428056907116000,11.724115966796875,-0.07137158403545618,0.07097381688952445,0.030992154308781026
1775428056917165800,11.734165771484374,-0.07010638640522956,0.09710428344607352,0.03788428844269365
1775428056927215900,11.7442158203125,-0.05013970317542553,0.11704758580029011,0.012633709993213414
1775428056937265000,11.754264892578124,-0.03621200784891843,0.11826865202784538,-0.001181026478111744
1775428056947314700,11.764314697265625,-0.04303104021400213,0.07940788323581219,-0.023498108758963642
1775428056957364700,11.77436474609375,-0.02346183186918497,0.05184066187441349,-0.039539800564758476
1775428056967414800,11.784414794921876,0.01830225714892149,-0.004928104051947594,-0.0443013158781454
1775428056977464800,11.79446484375,0.009108896867930889,-0.023098551514744756,-0.020750527083873746
1775428056987514600,11.8045146484375,0.00036211131066083904,-0.027290157985687253,-0.004403970579989255
1775428056997564000,11.81456396484375,-0.04585486546307802,-0.03927987098693848,-0.00841247556898743
1775428057007614000,11.824614013671875,-0.0928793592274189,-0.04930325235128402,-0.012525500378385186
1775428057017663700,11.834663818359376,-0.12198007376641035,-0.039753333717584605,0.0038315044542774554
1775428057027713800,11.8447138671875,-0.1406076173469424,-0.062037061718106266,-0.021781039175391197
1775428057037763800,11.854763916015624,-0.1014016883790493,-0.07128653610050678,-0.017654131971113384
1775428057047814000,11.86481396484375,-0.04700608132481575,-0.08745031991600989,0.021255992387980222
1775428057057862700,11.874862548828125,0.012912380804121493,-0.0670031596928835,0.004605813295021653
1775428057067912700,11.88491259765625,-0.0016235095486044882,-0.05759878700971603,-0.0033947204722091554
1775428057077962800,11.894962646484375,-0.030721301478147504,-0.048772506475448604,0.030588505411334333
1775428057088013000,11.905012939453124,-0.026577918063104153,-0.07342588621675968,0.0305363003000617
1775428057098062800,11.915062744140625,-0.004758300442993641,-0.07344575996100902,0.01615702528115362
1775428057108113000,11.92511279296875,0.02409954525083303,-0.06069558398127556,0.02489672351051122
1775428057118162000,11.935161865234376,0.043136254154145716,-0.09097031073570251,0.024804405584558844
1775428057128211700,11.945211669921875,0.04693213930577039,-0.10391805511415005,0.016246639793366192
1775428057138261800,11.95526171875,0.050503860312700266,-0.0965782137453556,0.038804289364442225
1775428057148311800,11.965311767578125,0.061788347654044624,-0.1052659625917673,0.02156659270711243
1775428057158361900,11.97536181640625,0.059911447866261,-0.08347498654425144,-0.012750285577587783
1775428057168411600,11.98541162109375,-0.004141629849374294,-0.025498013871908188,-0.037166532094776626
1775428057178461000,11.9954609375,-0.12448182745426893,-0.01197451543211937,-0.08547441673316061
1775428057188511000,12.005510986328124,-0.17440613431334495,0.036731940069794654,-0.0920787103690207
1775428057198560800,12.015560791015625,-0.1781274929240346,0.06435118387937545,-0.06690799222271888
1775428057208610800,12.02561083984375,-0.16876579033881425,0.04808101707994938,-0.08157540000062435
1775428057218660900,12.035660888671876,-0.025022505314648148,0.049044309154152865,-0.05087499518003315
1775428057228711000,12.0457109375,0.08604805190265179,0.021809096226096152,-0.05044120687264949
1775428057238759700,12.055759765625,0.04806143559664488,0.04455693460702896,-0.036656061821989716
1775428057248809700,12.065809814453125,-0.006484978105127811,0.05210369672477245,-0.03473426344655454
1775428057258859800,12.07585986328125,-0.06244125860482454,0.063878305670619,-0.0608518339889124
1775428057268909800,12.085909912109376,-0.054206221961975096,0.0627022476285696,-0.06484280332121997
1775428057278959900,12.0959599609375,-0.054525955435633655,0.02446224108338356,-0.04298997755125165
1775428057289010000,12.106010009765624,-0.00871668267995119,0.010301613783836365,-0.006799597012251615
1775428057299059000,12.116058837890625,0.039726737971603865,-0.02787818700671196,0.017396394350379703
1775428057309108700,12.126108642578124,0.04947071787267923,-0.08216448846757411,0.03669551704954356
1775428057319158800,12.13615869140625,0.011529402013123035,-0.059172904458642005,0.033101620743423696
1775428057329208800,12.146208740234375,-0.06590864245444536,-0.04666121340990066,0.022143223551288244
1775428057339259000,12.1562587890625,-0.13945844731181858,-0.026003040784597396,-0.008858794564381241
1775428057349308700,12.16630859375,-0.19117694411128758,-0.001852349868416786,-0.026481398886069655
1775428057359358700,12.176358642578125,-0.16768033318966627,0.0050981999218463895,-0.03974379870425909
1775428057369408000,12.186407958984375,-0.0785249629214406,-0.02038870803415775,-0.04566924323048442
1775428057379458000,12.1964580078125,-0.015174480517208575,-0.03177110279202461,-0.019845321872457862
1775428057389507800,12.2065078125,0.05909983922243118,-0.05208791463375091,-0.025000914537347853
1775428057399558000,12.216557861328125,0.05893646535426378,-0.06433890891969203,-0.04931307962555438
1775428057409608000,12.22660791015625,0.01037672484666109,-0.01868248863816261,-0.019503888023644684
