time,seconds_elapsed,z,y,x
1775508865636915700,0.090915771484375,0.1981055743306875,0.009317278921604156,-0.04236304129194468
1775508865646848800,0.100848876953125,0.025337270352244375,-0.03761632168889045,-0.13852549557695165
1775508865656782600,0.110782470703125,-0.02767769599854946,-0.05167816478908062,-0.17030408755568788
1775508865666715600,0.120715576171875,-0.014439444240927695,0.024445874470472334,-0.08023967615114524
1775508865676649700,0.130649658203125,-0.01435118143558502,0.12055763974785803,0.04218454291988164
1775508865686582800,0.140582763671875,0.009963760131597518,0.17721768460273743,0.07795271599143742
1775508865696516900,0.150516845703125,0.03290799786746502,0.12938567384779454,0.054152683410141615
1775508865706450700,0.16045068359375,-0.04087035504877567,0.07983458421528339,0.045329800409357995
1775508865716383700,0.1703837890625,-0.1083335334688425,0.011607435685396194,0.026004812616575508
1775508865726317600,0.180317626953125,-0.10221417380571365,-0.02102232976257801,0.04594762178044766
1775508865736250600,0.190250732421875,-0.06451017383337021,-0.005919453176856041,0.07708645455092192
1775508865746184700,0.200184814453125,-0.03437514781057834,-0.009074702337384223,0.09554046819545328
1775508865756117500,0.210117431640625,-0.03968611370027065,-0.044694297251105304,0.05825922367982566
1775508865766051800,0.2200517578125,-0.12863514774143694,-0.09893208339512348,-0.02762753671389073
1775508865775984600,0.229984619140625,-0.11760346611738204,-0.10818331134319305,-0.03492848911071196
1775508865785918700,0.239918701171875,-0.05891805291473865,-0.06282850435674191,0.014507778503093868
1775508865795851800,0.249851806640625,-0.013090367719531058,-0.03315817323625087,0.05626490805745125
1775508865805785600,0.25978564453125,0.01866203037202358,-0.05694470701515674,0.023822006951086223
1775508865815718700,0.26971875,0.003723404437303543,-0.07635550992786884,0.012925276818312703
1775508865825652500,0.279652587890625,-0.029870237606763838,-0.05594692814946174,0.008962054009456186
1775508865835585500,0.28958544921875,-0.02464695000052452,-0.044318449676036833,0.03355931964935735
1775508865845520000,0.299519775390625,0.005627776753902435,-0.02234042662382126,0.06075233740350231
1775508865855452700,0.30945263671875,0.031515082204341884,-0.03936638022661209,0.03850158009082079
1775508865865386800,0.31938671875,0.012743746238946915,-0.04707914656102657,-0.017304131223354488
1775508865875320600,0.329320556640625,0.043535774865746495,-0.04049509199559689,-0.014312968317046761
1775508865885253600,0.339253662109375,0.05982756897509098,-0.017204817301034927,0.04296867903489619
1775508865895187700,0.349187744140625,0.10573299558162688,-0.003741524615883827,0.07790284896772354
1775508865905120500,0.35912060546875,0.0816951173901558,-0.0008329436928033829,0.10298210770459845
1775508865915054800,0.369054931640625,0.04882219083607196,-0.004202127864956855,0.07020674150716513
1775508865924988000,0.37898779296875,0.019191607204079628,0.007955342918634414,0.032045974210649725
1775508865934921700,0.388921630859375,-0.030125089150667188,0.007816226708889007,0.006664353260025382
1775508865944854800,0.398854736328125,-0.060199324896931646,0.015910685837268828,0.0042540224489755925
1775508865954788600,0.40878857421875,-0.050398061850666996,0.025405659413337705,0.055990310633461916
1775508865964721700,0.4187216796875,0.018859598770737646,0.039704233878850935,0.10785559549247846
1775508865974655700,0.42865576171875,0.06115618723034858,0.027427520629763603,0.0966997577657923
1775508865984588500,0.438588623046875,0.06425649133324622,0.02084755771756172,0.08883479654435068
1775508865994523000,0.44852294921875,0.06259528012275696,0.024211481192708013,0.08696777882976457
1775508866004456700,0.458456787109375,0.06206394972503185,0.03463993622660637,0.08492613520063459
1775508866014389800,0.4683896484375,0.03899053265154361,0.04497077610492706,0.11046972351362928
1775508866024323600,0.478323486328125,0.010438391906023026,0.046563013732433316,0.0665380994644016
1775508866034256600,0.488256591796875,-0.005651157629489898,0.029869068562984463,0.03950931409494951
1775508866044190700,0.498190673828125,-0.005457680884003639,0.01028174003958702,0.030210319748707113
1775508866054123500,0.50812353515625,0.033658523973822595,0.02684767491519451,0.03785871561001986
1775508866064057600,0.5180576171875,0.07161971357762813,0.03239420312643051,0.05177767964079976
1775508866073990700,0.52799072265625,0.07982640090882778,0.02807107923030853,0.003041066462639719
1775508866083924700,0.5379248046875,0.04800327566862106,0.007006079369783401,0.006837737065553665
1775508866093857800,0.54785791015625,0.0569943913757801,0.01319616618156433,0.060614591166935856
1775508866103791600,0.55779150390625,0.0997720413506031,0.028577275186777114,0.10169416851960122
1775508866113724700,0.567724609375,0.11362637917995452,0.019447627791762352,0.08516122259814292
1775508866123658800,0.57765869140625,0.07587269484698772,-0.001720247921347618,0.04376004860829562
1775508866133591600,0.587591552734375,0.018754969352483747,-0.013207272097468376,0.0066230166026391086
1775508866143525600,0.597525634765625,-0.017915011397004126,-0.027077976539731024,0.00973249039268121
1775508866153459700,0.607459716796875,-0.027570728492736816,-0.018053543084859847,0.0531669603084214
1775508866163392800,0.617392822265625,0.003066401833295822,-0.008948445609211922,0.08631769915688782
1775508866173326800,0.627326904296875,0.020351883155107497,-0.027981647381186484,0.062360028328467154
1775508866183259600,0.637259765625,0.01658639314174652,-0.05799333928525448,0.016982096194755283
1775508866193193700,0.64719384765625,0.011100070685148239,-0.05751227777004242,-0.013958254861552267
1775508866203126800,0.657126708984375,0.05586509508490562,-0.05365910947322845,-0.01797795709799975
1775508866213060600,0.667060546875,0.018214286604523656,-0.03361176222264767,0.017254958319384603
1775508866222993700,0.67699365234375,0.005585106655955315,-0.002028290957212448,0.05081776683377102
1775508866232927700,0.686927734375,-0.01651274338364601,0.0047165071278810495,0.032769995902571826
1775508866242860800,0.69686083984375,-0.11580664582848549,-0.035653497183322905,-0.02453590910779312
1775508866252794600,0.706794677734375,-0.10670973165929316,-0.07603811454176902,-0.036168588832300154
1775508866262727700,0.716727783203125,-0.017259177836775778,-0.058523500639200206,0.020261903316713868
1775508866272661800,0.726661865234375,0.05738076034486293,-0.062414078336954115,0.06081689053969457
1775508866282594600,0.736594482421875,0.12036650108993052,-0.041676995256543156,0.07576501495512201
1775508866292528600,0.746528564453125,0.15293898339271544,-0.04727437687218189,0.10577734618000685
1775508866302462700,0.756462646484375,0.162277889624238,-0.05389467179477214,0.11402907822933048
1775508866312395800,0.766395751953125,0.11964344751238823,-0.05402209756672382,0.10396074347840621
1775508866322329900,0.776329833984375,0.034900632989406585,-0.04301145873069763,0.09313251200458034
1775508866332262700,0.7862626953125,0.02691080327928066,-0.036029929280281064,0.058467386537790295
1775508866342196700,0.79619677734375,-0.003112579062581062,-0.07324000825583935,-0.0037851810945197938
1775508866352129800,0.8061298828125,0.018028993165493012,-0.07971066557466984,-0.03318387393308803
1775508866362063600,0.816063720703125,0.028898177704215048,-0.0584498508810997,-0.006240136498585343
1775508866371996700,0.82599658203125,0.06557984889149665,-0.0387777666836977,0.0022517427158541977
1775508866381930500,0.835930419921875,0.03137128981947899,-0.02058393834531307,0.017407810793537645
1775508866391863600,0.845863525390625,0.004758592703938484,-0.008781856870651245,0.07468343026349321
1775508866401798000,0.8557978515625,-0.007424597042798996,-0.006059738430380821,0.0879758964263834
1775508866411730700,0.865730712890625,0.016454291194677353,0.026848843958973884,0.09603203283837064
1775508866421664800,0.875664794921875,0.016722002220153808,0.013891747230291365,0.09343019804321229
1775508866431597800,0.885597900390625,0.030970892325043676,0.011083704072237015,0.06476484271418304
1775508866441531600,0.89553173828125,0.025852234137058255,0.019886603730916975,0.08085431918445975
1775508866451464700,0.905464599609375,0.017249825486540794,-0.02535714409649372,0.0785273192753084
1775508866461398500,0.9153984375,0.012837269741296767,-0.04559563000500202,0.07349749014824629
1775508866471332900,0.925332763671875,0.07403846515715122,-0.05459551354050636,0.03694567415202036
1775508866481265700,0.935265625,0.1265676938176155,-0.061414545905590055,0.037422589215077455
1775508866491199700,0.94519970703125,0.1298532913595438,-0.09457213461995125,0.023489048669673503
1775508866501132800,0.9551328125,0.13240356036424636,-0.09319090939462184,0.0309345789026469
1775508866511066600,0.965066650390625,0.12180384041666983,-0.07791092267632484,0.03206756498795003
1775508866520999700,0.974999755859375,0.09340542892813682,-0.07449322318732739,0.06633532516760751
1775508866530933500,0.98493359375,0.059705988422036164,-0.04649520919322967,0.08279938883762807
1775508866540866600,0.994866455078125,0.03837210849225521,-0.049313773745298384,0.07457202404458076
1775508866550801000,1.00480078125,0.004046645042300224,-0.06354571271538734,0.03678562475210056
1775508866560734000,1.01473388671875,-0.012951836031675337,-0.07923135762512683,0.026063995457906275
1775508866570668000,1.02466796875,-0.025775077247619627,-0.10615794299542904,0.052225861799716944
1775508866580601000,1.03460107421875,-0.05580839646160602,-0.11083704072237015,0.05974600990517064
1775508866590535000,1.044534912109375,-0.039595512807369226,-0.1056932480931282,0.06427210902748628
1775508866600468000,1.054468017578125,-0.027912673798203468,-0.10803951895833015,0.07059203276401385
1775508866610402000,1.064402099609375,-0.00708148269355297,-0.107937227627635,0.051419751314911985
1775508866620336000,1.074336181640625,-0.007991583275794982,-0.08800269310176372,0.01847324806796387
1775508866630269000,1.08426904296875,-0.027235212928056717,-0.08248188385367393,0.04523841406516731
1775508866640203000,1.094203125,-0.0386252064704895,-0.062111295998096464,0.08102770298998803
1775508866650136000,1.104135986328125,-0.06147767426967621,-0.05152852718532085,0.08389206117885187
1775508866660070000,1.11406982421875,-0.05235562565922737,-0.02826806310713291,0.06924962344542146
1775508866670003000,1.1240029296875,0.002348608952760696,-0.008008534410595894,0.07702476922525092
1775508866679936800,1.133936767578125,0.06872106952667235,-0.006285363879799843,0.10276238227300345
1775508866689869800,1.143869873046875,0.13120178335905075,-0.008645078748464584,0.09430769326379522
1775508866699804200,1.15380419921875,0.16965806300342082,-0.01957797617316246,0.0799103163326159
1775508866709737000,1.163737060546875,0.19083938271999357,-0.019803017100691794,0.06753308358481154
1775508866719671000,1.173671142578125,0.1778372778058052,0.013939678025245665,0.06789181562829762
1775508866729604000,1.18360400390625,0.1442576642870903,0.0065963295251131055,0.08777266547186299
1775508866739538000,1.193537841796875,0.10923019004762172,-0.0053892918229103085,0.10337459588721394
1775508866749471000,1.203470947265625,0.10277765290737151,-0.001191255611181259,0.11229905783263966
1775508866759404800,1.21340478515625,0.10451660552918911,0.01013794765472412,0.1306658315851353
1775508866769337900,1.223337890625,0.11453589524030684,0.019863222855329512,0.11975377601906656
1775508866779272200,1.233272216796875,0.1061813238710165,0.03321545638144016,0.09146008528033271
1775508866789205000,1.243205078125,0.09784428815841674,0.02448796004652977,0.07485849456945434
1775508866799139000,1.25313916015625,0.09174304867386818,0.001675239735841751,0.07549301134701818
1775508866809073000,1.263072998046875,0.06831248872578144,0.008701192849874495,0.09675223687170073
1775508866819006000,1.273005859375,0.07578443204164505,0.0032891046732664107,0.07081391362007707
1775508866828940000,1.28293994140625,0.04698796114623546,-0.019503741893172263,0.05227578362235799
1775508866838872800,1.292872802734375,0.04849544309973716,-0.043104397711157795,0.06627745750052855
1775508866848807200,1.30280712890625,0.05286532874703407,-0.0585936432659626,0.06353427800592035
1775508866858740000,1.312739990234375,0.05205167427659035,-0.0002449146717786789,0.02186502766441554
1775508866868674000,1.322674072265625,0.027464345508813857,0.014986556729674338,-0.0010167758271098137
1775508866878607000,1.332607177734375,0.005620177969336509,0.009751578685641289,-0.008675199892092495
1775508866888541000,1.342541015625,0.033661446583271026,0.03579436695873737,-0.00606567498082295
1775508866898474000,1.352473876953125,0.028060557836294173,0.06060965926349163,-0.04071415984006598
1775508866908407800,1.36240771484375,0.04519523251056671,0.026641338688135147,-0.06567614887282251
1775508866918340900,1.3723408203125,0.06378185955882072,-0.03126899848878383,-0.05570734723992645
1775508866928275200,1.382275146484375,0.12090016957521438,-0.043161680856347084,-0.027123276986181735
1775508866938208000,1.3922080078125,0.24635844084620476,-0.07499532749056816,0.01966865013130009
1775508866948142000,1.40214208984375,0.30062896021604535,-0.08629647370576858,0.04082887226091698
1775508866958075100,1.4120751953125,0.29492636466026306,-0.08219605264961719,0.02010530624920502
1775508866968009000,1.422009033203125,0.2476455580472946,-0.0722001438140869,-0.019649525305721907
1775508866977942000,1.43194189453125,0.21537819617092607,-0.07293371878564357,-0.04770363513492047
1775508866987875800,1.441875732421875,0.1483656841278076,-0.060604983088374136,-0.03968551091207191
1775508866997810000,1.451809814453125,0.08589549168944359,-0.036546646630764006,-0.07980449960427358
1775508867007743000,1.461742919921875,0.00993453403711319,-0.018604747226834296,-0.10255264851246028
1775508867017677000,1.471677001953125,-0.03728255968987942,-0.036360184147953986,-0.10154875043323262
1775508867027610000,1.481610107421875,-0.1175964518547058,-0.03407937973439693,-0.0650171735074371
1775508867037544000,1.4915439453125,-0.11460019264817237,-0.016662380987405776,-0.016730678716953842
1775508867047477000,1.50147705078125,-0.1328635790914297,-0.0123608844012022,-0.01891964012859389
1775508867057411000,1.5114111328125,-0.15048691406548023,-0.016736030745506284,-0.006417356229014694
1775508867067344000,1.52134375,-0.1119938095420599,-0.01215045652091503,-0.010109306082129477
1775508867077278000,1.53127783203125,-0.07809037089645862,-0.03984802626371384,-0.014634546687919645
1775508867087211000,1.5412109375,-0.075978493309021,-0.027734979143738746,0.037092261282168325
1775508867097145000,1.55114501953125,-0.06167874979972839,-0.006450199052691459,0.04178940612245351
1775508867107078100,1.561078125,-0.05463993720412254,-0.010014029014110564,0.02883554253047332
1775508867117012000,1.571011962890625,-0.010378186151385306,-0.017405308309197426,-0.0008193718251772224
1775508867126945000,1.580945068359375,0.028650340422987936,-0.011115852776169777,0.012771419697161763
1775508867136878800,1.59087890625,0.06875029562115668,-0.011335048484802246,0.058613462211284786
1775508867146812000,1.60081201171875,0.08308043426871299,0.020773323437571524,0.053560964594688266
1775508867156746000,1.61074609375,0.10675357080101966,0.032282559445500375,0.04801759645491838
1775508867166678800,1.6206787109375,0.14345336216688157,0.014735796838998793,0.049021220539510246
1775508867176613000,1.630613037109375,0.17082476869523525,0.023968320086598396,0.06380726799471304
1775508867186546200,1.640546142578125,0.17576164057552812,0.03299099997580051,0.05633450269494206
1775508867196480000,1.65047998046875,0.16505729120969773,0.04752747485041618,0.05498166331388056
1775508867206413000,1.6604130859375,0.18379589394927023,0.040431963631510734,0.09745538017237558
1775508867216347000,1.670346923828125,0.15229367122650145,0.029437106886506078,0.1053138568541035
1775508867226281000,1.680281005859375,0.11449497870802879,0.0004857376903295517,0.0826910330923274
1775508867236214000,1.690214111328125,0.0451432100623846,-0.03654021688997745,0.05963896933412179
1775508867246147800,1.70014794921875,0.02518587918281555,-0.06664660134017467,0.05729363005068153
1775508867256081200,1.7100810546875,-0.015326163947582244,-0.06792027453780174,0.04860750690577551
1775508867266015000,1.720014892578125,-0.04114566485881805,-0.09123977532684803,0.023076047421991822
1775508867275948000,1.729947998046875,-0.049313773745298384,-0.07551905910372733,0.02237405489878729
1775508867285882000,1.739882080078125,-0.04740297168791294,-0.06333703840076924,0.028092688273917883
1775508867295815000,1.74981494140625,-0.03430968135893345,-0.035728315985202784,0.06441783764110878
1775508867305749000,1.7597490234375,-0.07480652692019939,-0.00626022943854332,0.07581524730501696
1775508867315682000,1.76968212890625,-0.09704583125710486,-0.011387070932984352,0.05856724844938144
1775508867325615900,1.779615966796875,-0.07368249132633209,-0.013249942195415495,0.07058783151293173
1775508867335549000,1.789548828125,-0.016867548170685767,-0.010046762239933013,0.07467731104996055
1775508867345483000,1.79948291015625,-0.0002484218031167984,-0.027292496073246,0.0818578336711973
1775508867355416000,1.809416015625,0.011304653346538542,-0.020752280649542806,0.03391414270270616
1775508867365350000,1.819349853515625,0.013674305087327957,-0.029437106886506078,0.05954493437511846
1775508867375283000,1.829282958984375,-0.0004839841246604919,-0.024906477719545364,0.0791848333359696
1775508867385217000,1.839217041015625,0.016124620848894117,-0.0010994856745004653,0.07708128518546
1775508867395149800,1.84914990234375,0.007907412123680114,-0.0025970307558774944,0.07399464428173377
1775508867405084000,1.859083984375,-0.011689268749952316,-0.003301379632949829,0.0640774084392935
1775508867415017000,1.869016845703125,-0.018337620723247527,0.013464461728930472,0.06582874561864882
1775508867424951000,1.878950927734375,-0.00038812253475189204,0.0033528175592422486,0.0826048709125258
1775508867434884000,1.888884033203125,0.04584697441756725,0.018844401201605795,0.09712771912058815
1775508867444818000,1.89881787109375,0.10457388867437839,0.0391916081815958,0.10368331477651371
1775508867454751000,1.9087509765625,0.1211298866778612,0.03702478553652763,0.0971169602645561
1775508867464685000,1.91868505859375,0.13373802383840083,0.01452069278359413,0.07238938277587294
1775508867474619000,1.928618896484375,0.11428981152474879,-0.011745967373251915,0.07830978580079972
1775508867484552000,1.938552001953125,0.12196633750200271,-0.0035784430086612698,0.07893032885193824
1775508867494486000,1.948486083984375,0.14389642975926398,-0.00644669192135334,0.08583428128780797
1775508867504419000,1.958419189453125,0.15764087747335434,-0.00951835445165634,0.07393206390691921
1775508867514353200,1.968353271484375,0.14372750293314457,-0.029312603724002836,0.0639126463316381
1775508867524286000,1.978285888671875,0.09910334830880164,-0.02215162605345249,0.05565883192308247
1775508867534220000,1.988219970703125,0.017836100941896436,-0.006810264536738395,0.07962547150924801
1775508867544153000,1.998153076171875,-0.04403554108142853,-0.022830255967378615,0.05741236105952412
1775508867554086400,2.00808642578125,-0.064484454870224,-0.026437925070524212,-0.012788626560289411
1775508867564019500,2.01801953125,-0.02129120983183384,-0.01750876868367195,-0.013645371253788471
1775508867573953300,2.027953369140625,0.06412906556129455,-0.005088263049721717,0.03652125646118074
1775508867583886300,2.03788623046875,0.10393033007383345,-0.009299158743023872,0.10118479422535746
1775508867593820400,2.0478203125,0.08550678463280201,-0.05385609335005283,0.11157795875016599
1775508867603753500,2.05775341796875,0.06583236234784126,-0.0645277094900608,0.10079908284340053
1775508867613687600,2.0676875,0.046186581635475156,-0.0621770547106862,0.06419940911745652
1775508867623620600,2.07762060546875,0.024193945536017416,-0.06700432873666286,0.0684685743366368
1775508867633554400,2.087554443359375,0.04090191923081875,-0.08134908043146133,0.04946216924004256
1775508867643487500,2.097487548828125,0.04544190074801445,-0.06666852091103792,0.01602492333408445
1775508867653421300,2.10742138671875,0.009319032487273216,-0.06673749449402093,-0.0166645729444921
1775508867663354400,2.117354248046875,-0.03854804958105087,-0.05127192207574844,-0.007741499238554388
1775508867673288400,2.127288330078125,-0.08265607137680053,-0.04784516249746084,0.001723846384231001
1775508867683221200,2.13722119140625,-0.09675123222470283,-0.020183833111822605,0.032789449521712956
1775508867693155600,2.147155517578125,-0.10967267311811446,-0.03288052533864975,0.0484352921440266
1775508867703088600,2.157088623046875,0.01002513493001461,-0.047152211797237394,0.07499616774078458
1775508867713022500,2.1670224609375,0.04476502439975738,-0.04633505019545555,0.08625840671770274
1775508867722955500,2.17695556640625,0.025120412731170653,-0.02165361340343952,0.08361496127052231
1775508867732889300,2.186889404296875,-0.07946049020588397,-0.012297171515226364,0.03446823292151093
1775508867742822400,2.196822509765625,-0.1660030476272106,0.009233400030434132,0.012991163395065813
1775508867752756500,2.206756591796875,-0.18648352559804915,0.007514905674755573,0.016472959362529217
1775508867762689300,2.216689208984375,-0.09959960739314555,0.013369184660911559,0.059835386955365534
1775508867772623600,2.22662353515625,-0.005428454789519309,-0.010221242024004458,0.03942307884991169
1775508867782556400,2.236556396484375,-0.008933832561969756,-0.04414923058897256,0.011807269106432795
1775508867792490500,2.246490478515625,-0.057222939434647555,-0.060924424301087854,-0.01908524248646572
1775508867802424300,2.25642431640625,-0.06593640724420548,-0.053153205777704715,0.03614557328289374
1775508867812357400,2.266357421875,-0.03971241718530655,-0.0269569805085659,0.07156736233588308
1775508867822291500,2.27629150390625,0.02239478715956211,-0.02035217541605234,0.09804002992622554
1775508867832224300,2.286224365234375,0.0742132372021675,-0.010197568887472152,0.0645428887928836
1775508867842158600,2.29615869140625,0.11867372569739817,-0.02944353662729263,0.033698728120047594
1775508867852091600,2.306091552734375,0.05338146157562732,-0.027700492352247235,0.02413808716293424
1775508867862025500,2.316025390625,-0.011444938600063324,-0.038508594353497023,0.03545300617516041
1775508867871958500,2.32595849609375,-0.1999018100976944,-0.07861556381434202,0.03939666576702147
1775508867881892400,2.335892333984375,-0.41396074036359787,-0.0814852740317583,-0.0026457652684301136
1775508867891825400,2.345825439453125,-0.30953882738053795,0.010656126309931277,0.052651832126826045
1775508867901759500,2.355759521484375,-0.13909282886981963,0.04639174881875515,0.0690264822140336
1775508867911692300,2.3656923828125,0.05785480759739876,0.058252282482385634,0.10177711582900956
1775508867921626400,2.37562646484375,0.1832926206022501,0.061897945508360856,0.1010688396954909
1775508867931559700,2.3855595703125,0.21835224354565141,0.06278174260556697,0.09529801947539672
1775508867941493500,2.395493408203125,0.2384960369080305,0.04765431610047817,0.05488547293040901
1775508867951426600,2.405426513671875,0.23239479742348193,-0.005996025544404983,0.0808993273699656
1775508867961360400,2.4153603515625,0.3055991498440504,-0.08924071046411991,0.17603576307548208
1775508867971293400,2.42529345703125,0.3856014918416738,-0.15722469788789747,0.2511649095461704
1775508867981227500,2.4352275390625,0.37693010960817336,-0.16664251457452772,0.2933174864252098
1775508867991160300,2.445160400390625,0.3167629334151745,-0.08838321685194969,0.4109690112017095
1775508868001094400,2.455094482421875,0.5587380446106195,0.6553624355852603,0.4888716409737244
1775508868011027500,2.46502734375,0.49152562608122824,0.755521430426836,0.7310562667340039
1775508868020961500,2.47496142578125,0.10404781897366046,0.3811410053014755,0.7339846483360976
1775508868030894600,2.48489453125,-0.3226175046622753,0.353931511336565,0.31849417765457183
1775508868040828400,2.494828369140625,0.13228197981119155,0.8683873466283083,0.7617787372559308
1775508868050761500,2.504761474609375,0.14995733723342416,0.5506178665190935,0.9032713207438587
1775508868060695300,2.5146953125,-0.11837035883665084,0.3239443693518638,0.6210341225910931
1775508868070628400,2.52462841796875,-0.030469957065582275,0.26437399000823497,0.2932806067472324
1775508868080562400,2.5345625,0.015728315007686615,0.2101692293509841,0.237195877562277
1775508868090495200,2.5444951171875,-0.10938684191405773,0.0738210230141878,0.2451030339576304
1775508868100429600,2.5544296875,-0.2607791803866625,-0.013731003710627555,0.28266225516442206
1775508868110362600,2.564362548828125,-0.3539753504782915,0.03734977970719337,0.2848533902668394
1775508868120296400,2.57429638671875,-0.3376151673078537,0.046079029607772826,0.27563031070102006
1775508868130229500,2.5842294921875,-0.31517011126577854,0.03776566703170538,0.24360185388075187
1775508868140163300,2.594163330078125,-0.2670388253033161,0.010179448708891868,0.1700578577096574
1775508868150096400,2.604096435546875,-0.19358137490451335,-0.10311199942827225,0.11093818127559497
1775508868160030500,2.614030517578125,-0.28688158989250656,-0.1086912608653307,-0.336685777503252
1775508868169963300,2.62396337890625,0.04833996027708053,-0.32037060251832006,-1.1709227980528025
1775508868179897600,2.633897705078125,0.053831543430685996,-0.6507818297967314,-0.6443953436300158
1775508868189831400,2.64383154296875,-0.09694587801396846,-0.5190004929840565,-0.245138598461356
1775508868199764500,2.653764404296875,-0.18955109647512436,-0.2738552273198962,-0.6389904158465564
1775508868209698600,2.663698486328125,-0.4658668686896562,-0.2376543253868818,-0.6601646482352167
1775508868219631400,2.67363134765625,-0.5470598817765713,-0.29696459248960017,-0.5687928805591538
1775508868229565400,2.6835654296875,-0.4549766413629055,-0.33553368485867974,-0.3715646370522678
1775508868239498500,2.69349853515625,-0.3969043916225433,-0.3558952126249671,-0.201994964718353
1775508868249432600,2.7034326171875,-0.2299292840927839,-0.35558161663115023,-0.2251393098698929
1775508868259365600,2.71336572265625,-0.06794248636960983,-0.23757015423476693,-0.4381257885986939
1775508868269299500,2.723299560546875,0.07523147433400154,-0.23366613253355026,-0.4838974692903459
1775508868279232500,2.733232421875,0.25399872646629806,-0.29552666864097116,-0.2895443428283557
1775508868289166300,2.743166259765625,0.4402630563557148,-0.187183198300004,-0.10485215762648731
1775508868299099400,2.753099365234375,0.5528150843024253,0.04439209943413734,-0.023858977960608898
1775508868309033500,2.763033447265625,0.5202800114005803,0.18662497989535332,0.0340892800739035
1775508868318966300,2.77296630859375,0.4145101909399032,0.19086743977069853,0.03723634592797607
1775508868328900400,2.782900390625,0.208117849779129,0.08923194263577461,-0.024745149677991865
1775508868338833400,2.79283349609375,0.07973580001592635,0.006711480337381362,-0.10697430087961256
1775508868348767500,2.802767578125,0.029565701702237126,-0.09196165986061096,-0.13767255027573555
1775508868358700500,2.812700439453125,0.0038870705664157865,-0.12755553581118584,-0.13868052174188195
1775508868368634400,2.82263427734375,0.10916180098652839,-0.017269699230790136,-0.0630006825858727
1775508868378567400,2.8325673828125,0.23797639694809913,0.12477613422572612,0.13708850331008435
1775508868388501500,2.84250146484375,0.24016601594686507,0.16665478953421115,0.25628358600046486
1775508868398434300,2.852434326171875,0.21065292121469972,0.14755670583248137,0.2390198415864259
1775508868408368400,2.862368408203125,0.16730536239743232,0.13272972357869148,0.20327972556557505
1775508868418301400,2.872301513671875,0.06724047558009624,0.09042670537829399,0.2390334317203611
1775508868428235500,2.882235595703125,-0.025383447581529616,0.06311375103890896,0.23585469208639115
1775508868438168600,2.89216845703125,-0.06389525680541992,-0.01575637205839157,0.19023155301995576
1775508868448102400,2.902102294921875,-0.10845628306567669,-0.1674550000011921,0.12464753940999507
1775508868458035500,2.912035400390625,-0.08676993643641472,-0.2044365309178829,0.02105455153174698
1775508868467969500,2.921969482421875,0.015163666862249374,-0.17744740170538426,-0.006799633544869721
1775508868477902300,2.93190234375,0.0934673882484436,-0.15302490811049937,0.0560850579785183
1775508868487836400,2.94183642578125,0.12608663230240344,-0.11436053867340087,0.13817640814464538
1775508868497769500,2.95176953125,0.11104045433998107,-0.08191489762067794,0.14416242375168947
1775508868507703600,2.96170361328125,0.01687573147714138,-0.07267652915418148,0.07409074333366006
1775508868517636600,2.97163671875,-0.06453355470895766,-0.07156593756377697,0.02248626483529806
1775508868527570400,2.9815703125,-0.10779811141788959,-0.10364216078221797,0.015746837045066058
1775508868537503500,2.99150341796875,-0.13274024497270584,-0.14029519039690494,0.005223616399802267
1775508868547437300,3.001437255859375,-0.19711890138089655,-0.15688041449487208,-0.0688037063088268
1775508868557370400,3.011370361328125,-0.2049514947026968,-0.12670096480846404,-0.052300132612325245
1775508868567304400,3.021304443359375,-0.16299509798288345,-0.06125672499537468,0.06468399603031576
1775508868577237200,3.0312373046875,-0.08599719849824905,0.037682957184314726,0.15846666077300905
1775508868587171300,3.04117138671875,-0.038465631994605065,0.09794073427021503,0.21129600489120928
1775508868597104400,3.0511044921875,0.03041442748606205,0.09530395602583884,0.2095841229394078
1775508868607038200,3.0610380859375,0.07088789217174053,0.07599953609704971,0.19104020252171902
1775508868616971300,3.07097119140625,0.12164309689700603,0.07750584900677204,0.18203206261452287
1775508868626905300,3.0809052734375,0.13223521806001662,0.09381284068524837,0.20011892344709484
1775508868636838400,3.09083837890625,0.0398801749676466,0.07916063047647476,0.20177633526530114
1775508868646772500,3.1007724609375,-0.0960644190043211,0.07442191151678562,0.11017298732306807
1775508868656705300,3.110705322265625,-0.16844868721365927,0.02887596587240696,0.08762848949450999
1775508868666639400,3.120639404296875,-0.10155132598280905,-0.018843232157826423,0.06693831429574638
1775508868676572400,3.130572509765625,0.03528524839282036,-0.07284428693652152,0.0011267390076071023
1775508868686506200,3.14050634765625,0.1926508160561323,-0.05095335764586925,0.0016921543380245564
1775508868696439300,3.150439208984375,0.31259353877604007,-0.006405775389075279,0.061434529247693714
1775508868706373400,3.160373291015625,0.34936230372488497,0.00927402430176735,0.1337824109693989
1775508868716306400,3.170306396484375,0.3093476887226105,0.010294014999270438,0.08274258061647415
1775508868726240500,3.180240478515625,0.19409575416743755,-0.009900631767511367,0.038900954671949144
1775508868736173300,3.19017333984375,0.09718260937929153,-0.02736439226567745,0.0064688306879252195
1775508868746107400,3.200107421875,-0.004045475998520851,-0.07597089452445506,-0.008119337841309606
1775508868756040400,3.21004052734375,-0.07001169385910033,-0.0826093096256256,-0.012802892547659575
1775508868765974300,3.219974365234375,-0.07192074235081672,-0.08218962290883064,0.02100227335523814
1775508868775908400,3.229908447265625,-0.05719254429638385,-0.04781213701069355,0.017326069060526788
1775508868785841400,3.23984130859375,-0.03645078504085541,-0.007176759761571884,-0.020194391038455068
1775508868795774500,3.2497744140625,-0.003147650375962257,0.0007382511466741561,-0.020620690159127115
1775508868805708300,3.259708251953125,0.030941666230559346,0.008750292688608169,0.07555128087289631
1775508868815642400,3.269642333984375,0.06394318760037422,0.033984687188267707,0.09408665265794842
1775508868825575400,3.279575439453125,0.04204407500326633,0.024264672684669492,0.05678290404956787
1775508868835509200,3.28950927734375,0.013268646895885467,0.004987725284695625,0.013282054366730153
1775508868845442300,3.2994423828125,0.01903378629386425,-0.04455576556324958,0.018295133288390934
1775508868855376400,3.30937646484375,-0.001202361527085304,-0.08204173887073993,0.030240970615297555
1775508868865309400,3.319309326171875,-0.2122393136233091,-0.02047638631761074,0.07084376076906919
1775508868875243500,3.329243408203125,-0.25440204657018184,0.028864275434613226,0.07402765150219201
1775508868885176300,3.33917626953125,-0.23395722443461417,0.04635726202726364,0.07214154549464583
1775508868895110400,3.3491103515625,-0.1477390766620636,0.04282908790111541,0.0487421113371849
1775508868905043500,3.35904345703125,-0.09395604854822158,0.0714993020683527,0.05235292224548757
1775508868914977300,3.368977294921875,-0.0035603228300809856,0.09372633144557475,0.21110804457105695
1775508868924910300,3.378910400390625,0.24041385322809217,0.08539163382053375,0.11313293310720472
1775508868934844200,3.38884423828125,0.36207156317234035,0.04576806396245956,-0.02620013425927609
1775508868944777200,3.398777099609375,0.2945341504722834,-0.07033727255165577,-0.03883073897995055
1775508868954711600,3.408711669921875,0.4206815730512142,-0.12833821062147616,-0.08723053968548775
1775508868964644400,3.418644287109375,0.4525520445644855,-0.13702186781466005,-0.3551481205847114
1775508868974578400,3.428578369140625,0.005057283389568328,-0.18330138843059537,-0.36272761592827735
1775508868984511500,3.438511474609375,-0.289310862866044,-0.011731938847899435,-0.2726531945863738
1775508868994445300,3.4484453125,-0.37060908989310265,0.42890111986398693,0.16862656453121452
1775508869004378400,3.45837841796875,-0.13056699258685112,0.22268238170444965,0.37065906651467084
1775508869014312200,3.468312255859375,-0.04770283141732216,0.20491876147687435,0.12456344132311642
1775508869024245200,3.478245361328125,-0.0037292496562004087,0.18087094641327858,0.02211476464178413
1775508869034179300,3.488179443359375,0.02097089183628559,0.12558569704294203,0.07122030246388167
1775508869044112400,3.4981123046875,0.20186521912515162,0.023314824613928795,0.26670966641418636
1775508869054046500,3.50804638671875,0.33578035309612747,-0.07220540451109408,0.3465466983148828
1775508869063979300,3.517979248046875,0.17895839079022408,-0.12458441104590892,0.20502675189599393
1775508869073913300,3.527913330078125,0.03419043889343738,-0.21654256377518175,0.05662318344321102
1775508869083846400,3.537846435546875,-0.045910687303543085,-0.26848960863351823,0.0022284166391938923
1775508869093780200,3.5477802734375,-0.15228899505138396,-0.2543207980275154,-0.029649251799844203
1775508869103713300,3.55771337890625,-0.22497721464335918,-0.3363344798475504,-0.05864705395363271
1775508869113647400,3.5676474609375,-0.341919001981616,-0.4465922593772411,-0.11574074098542332
1775508869123580400,3.577580322265625,-0.4630547338783741,-0.6487018086522818,-0.17481540923397987
1775508869133514500,3.587514404296875,-0.4774854102909565,-1.0044196188837289,-0.28130773528292774
1775508869143447300,3.597447265625,-0.2386708089530468,-0.7812608518391847,-0.7429356512285769
1775508869153381400,3.60738134765625,-0.08523965812921523,-0.43969373203516005,-0.861879352973774
1775508869163314400,3.617314453125,-0.10683189673423767,-0.34521570543944835,-0.48535080990381535
1775508869173248300,3.627248291015625,0.10364449886977672,-0.20635726984739303,-0.20049729177281259
1775508869183181300,3.637181396484375,0.18222177650034427,-0.012213584885001181,-0.10281794838514179
1775508869193115400,3.647115478515625,0.24410452443957328,0.15310498760938643,-0.07184873656053095
1775508869203048400,3.65704833984375,0.2604682147413492,0.30269115344285963,-0.005009133398905396
1775508869212982500,3.666982421875,-0.7732716066509485,0.5454559537112712,0.12460603835582733
1775508869222915300,3.676915283203125,-0.5016483761668205,0.5503641840189695,0.2771812299374491
1775508869232849400,3.686849365234375,-0.04895838443636894,0.4119628445446491,0.5330632859323173
1775508869242782500,3.696782470703125,0.02489478728175163,0.3852975404590368,0.5685941065840423
1775508869252716300,3.70671630859375,-0.016004209339618682,0.4681774837195873,0.37202553256228565
1775508869262649300,3.7166494140625,0.021566519641876218,0.46514147702455516,0.27332071858439594
1775508869272583200,3.726583251953125,0.1267155778557062,0.3850023569047451,0.3179277028782293
1775508869282516500,3.7365166015625,0.2453893035531044,0.2938257099419832,0.3648937444536015
1775508869292450300,3.7464501953125,0.2998141367018223,0.22971710264682768,0.3707337026534602
1775508869302383400,3.75638330078125,0.33349428798556324,0.20234394255280494,0.3489309996355325
1775508869312317400,3.7663173828125,0.3414753498673439,0.16717033784091473,0.3444499817639589
1775508869322250200,3.776250244140625,0.32571371711194513,0.1493207928955555,0.3186232839269563
1775508869332184300,3.786184326171875,0.27949381772875787,0.08908756572902202,0.24714670514706522
1775508869342117400,3.796117431640625,0.193766668343544,0.01368365743756294,0.1643369045132771
1775508869352051200,3.80605126953125,0.17237959692180155,-0.07492986103892325,0.08750197703801095
1775508869361984300,3.815984375,0.20735504871308802,-0.13710545444488526,0.019429142287001013
1775508869371918300,3.82591845703125,0.24719781427979468,-0.18121406076252458,-0.03187134829610586
1775508869381851400,3.835851318359375,0.2723018603980541,-0.18160744399428366,-0.06112612088564783
1775508869391785500,3.845785400390625,0.2919903112083673,-0.21427286527752876,-0.040306145294755694
1775508869401718300,3.85571826171875,0.2528559861719608,-0.20831191104650496,-0.039694808463379735
1775508869411652400,3.86565234375,0.06245557939112186,-0.172451493114233,-0.1500411795919761
1775508869421585400,3.87558544921875,-0.37279578628242016,-0.07756956189274787,-0.4540717284124344
1775508869431519200,3.885519287109375,-0.2167804641842842,-0.11968728665411471,0.277200263431482
1775508869441452300,3.895452392578125,-0.009800678524374962,-0.01423836871087551,0.5333214984770864
1775508869451386400,3.905386474609375,-0.13439911809563637,0.16152210282087326,0.07917023855503648
1775508869461319400,3.9153193359375,-0.49498307305872435,0.09702361942529678,-0.053950822428800164
1775508869471253500,3.92525341796875,-0.6147428404271602,-0.10159984129965305,-0.029138854592293498
1775508869481186300,3.935186279296875,-0.2052297271221876,-0.28530104270279405,0.13457443812992423
1775508869491120400,3.945120361328125,-0.04512392084002494,-0.2951759555071592,0.023999190148897467
1775508869501053400,3.955053466796875,-0.16609774017333984,-0.21623861239254474,-0.35698684378657486
1775508869510987300,3.9649873046875,-0.2395727262288332,-0.2342828031271696,-0.42934382213018835
1775508869520920300,3.97492041015625,-0.10086217467486858,-0.27406945459246634,-0.2767566843824461
1775508869530854400,3.9848544921875,0.02562427060008049,-0.1860936494976282,-0.03476348954103887
1775508869540787500,3.994787353515625,0.06793313401937484,-0.010986088916659354,0.03509082179926336
1775508869550721300,4.00472119140625,0.08123802127242088,0.1813619448006153,0.09699826578833162
1775508869560654600,4.014654541015625,0.005677461114525795,0.30003274788856504,0.14217347842417657
1775508869570588700,4.024588623046875,-0.06004150398671627,0.29934359658062454,0.03311484555117786
1775508869580521500,4.034521484375,-0.007581248909235,0.1983276926487684,-0.00483951245304197
1775508869590455600,4.04445556640625,0.013064064234495161,0.05672843391597271,-0.04271170859914273
1775508869600388600,4.054388671875,-0.09683423433303832,-0.020600304958224295,-0.08393741642422974
1775508869610322400,4.064322509765625,-0.21428572475910185,-0.07737199349403381,-0.18653591337241232
1775508869620255500,4.07425537109375,-0.21339842053055763,-0.08566928171813487,-0.18132606976963578
1775508869630189600,4.084189453125,-0.06489946541190147,-0.07549275561869144,-0.061388370284717525
1775508869640122600,4.09412255859375,0.2412678397089243,-0.06737199300527572,0.110503242190741
1775508869650056700,4.104056640625,0.3640355567216873,-0.11729425403773784,0.13383014083495362
1775508869659989500,4.113989501953125,0.3722825760632753,-0.08474106095731258,-0.004716050470154732
1775508869669923600,4.123923583984375,0.3877215527355671,-0.02006371386349201,-0.09780054034823552
1775508869679856600,4.133856689453125,0.24624504359960556,-0.005264788660407066,-0.10160575958378612
1775508869689790500,4.14379052734375,0.14547639242708682,0.023971827217936514,-0.030642464088276027
1775508869699723500,4.1537236328125,0.13262684772610664,0.07952712570130825,0.09703993123928084
1775508869709657600,4.16365771484375,0.07087327912449837,0.08204173887073993,0.0507518071917817
1775508869719590700,4.173590576171875,-0.06034253275990486,0.028252281016111373,-0.06389377723438665
1775508869729524700,4.183524658203125,-0.054417234364151953,-0.017814473631978033,-0.10222946270639076
1775508869739457500,4.19345751953125,-0.02576923202872276,-0.04553074807524681,-0.10657985820192843
1775508869749391600,4.2033916015625,-0.07331541157960891,-0.011502221745252608,-0.08034344705287366
1775508869759324700,4.21332470703125,-0.014321955341100692,-0.0016027590215206145,-0.046315998435113574
1775508869769258500,4.223258544921875,-0.001005962172150612,-0.013676643174886703,-0.01291637199264951
1775508869779191600,4.233191650390625,-0.03506722172796726,-0.01935527333319187,0.06759477804363705
1775508869789125600,4.243125732421875,-0.028206688308715817,0.04727613043785095,0.16916125592980533
1775508869799058700,4.25305859375,0.027743162450194356,0.12392273226678371,0.21870120311379432
1775508869808992500,4.262992431640625,0.06948036346137523,0.08572539581954479,0.20508962453175336
1775508869818925600,4.272925537109375,0.09463877011537551,0.046724341773986815,0.16139851297382266
1775508869828859600,4.282859619140625,0.027706922093033787,-0.017038813084363936,0.11340284522292203
1775508869838792400,4.29279248046875,0.07746376343071461,-0.058140054279565805,0.10908865355192683
1775508869848726500,4.3027265625,0.11277473078668117,-0.04797697218358517,0.07454573882585391
1775508869858659600,4.31265966796875,0.0784136115014553,-0.03242401374280453,0.05511042252639308
1775508869868593400,4.322593505859375,0.37419922333955763,-0.10041443090736865,-0.042772343612043184
1775508869878526700,4.332526611328125,0.47496787451207634,-0.04239887979030609,-0.008089344561845064
1775508869888460500,4.34246044921875,0.4242658612787723,0.13433832781910895,0.48461920769363637
1775508869898393600,4.3523935546875,0.41913609717488287,0.14177753790915013,0.500864970704168
1775508869908327700,4.36232763671875,0.22821721947789192,0.06595102029144763,0.2366996550105512
1775508869918260500,4.372260498046875,-0.00031856442987918853,0.04179740676581859,-0.02484165058871731
1775508869928194600,4.382194580078125,-0.09069909257888793,0.030745266875624656,-0.11578679948369971
1775508869938127600,4.392127685546875,-0.13157529284656047,-0.020337854629755018,-0.12940487173860893
1775508869948061400,4.4020615234375,-0.10801379999518394,-0.06397533630430698,-0.08216628769901581
1775508869957994500,4.411994384765625,-0.08674830912649631,-0.05834229885339737,-0.05211878469604998
1775508869967928600,4.421928466796875,-0.13164192834198474,-0.0538140077739954,0.01871567852171138
1775508869977861600,4.431861572265625,-0.08826748151779175,-0.042454409369826314,0.008102459771744907
1775508869987795700,4.441795654296875,-0.07901800713539123,-0.024981296521425247,-0.025028030873136594
1775508869997728500,4.451728515625,-0.05345277324616909,-0.03726385498940944,0.015659944212902337
1775508870007662600,4.46166259765625,-0.04867606036365032,-0.052663668695092196,0.062569305431284
1775508870017595600,4.471595703125,0.0028752631753683087,-0.021838906842470168,0.09279404643098824
1775508870027529500,4.481529541015625,0.07870411888062953,-0.010177695143222809,0.10125669041778891
1775508870037462500,4.491462646484375,0.14119593862891197,-0.0006067337214946747,0.09096124151325784
1775508870047396600,4.501396728515625,0.20881869152486324,-0.0035720132678747174,0.08221873027230613
1775508870057329700,4.51132958984375,0.16638883207440375,0.01795066723227501,0.030643897993536666
1775508870067263500,4.521263427734375,0.08476035017967223,0.00876724382340908,0.018389369176793843
1775508870077196500,4.531196533203125,0.10915303315818309,0.004498480463027954,0.03675767729924991
1775508870087130600,4.541130615234375,0.1646177307486534,0.028652678510546682,0.06981756865964271
1775508870097063400,4.5510634765625,0.21190379805862902,0.04320844260752201,0.07323733224156312
1775508870106997500,4.56099755859375,0.16641864269077777,0.07120528755784035,0.07105390552156604
1775508870116930600,4.5709306640625,0.09943360317647457,0.08136427800059318,0.10139047286529093
1775508870126864600,4.58086474609375,0.04144084841310978,0.015514379996061324,0.09893482334148138
1775508870136797700,4.590797607421875,0.010759878945350645,-0.034088732084631916,0.08130514995818958
1775508870146731500,4.6007314453125,-0.06509118859171867,-0.013027239355444907,0.09102148380051367
1775508870156664600,4.61066455078125,-0.09836568168401717,0.0017015432208776474,0.06745963475611061
1775508870166598700,4.6205986328125,-0.06259703368842602,-0.023591887989640233,0.08581092781168408
1775508870176531500,4.630531494140625,-0.023891747719049453,-0.050341363227367396,0.054260774293961
1775508870186465500,4.640465576171875,-0.04405775291323662,-0.01583002181649208,0.0265584918434266
1775508870196398600,4.650398681640625,-0.05616261672675609,-0.005877952122688293,-0.0005305266801267862
1775508870206332700,4.660332763671875,-0.015098200410604477,-0.030709611040353774,0.03156999072935432
1775508870216265700,4.670265625,0.009286299261450767,-0.03942307884991169,0.03737332497956231
1775508870226199600,4.680199462890625,0.0594341857433319,-0.0018763152658939361,0.048051946249091995
1775508870236132600,4.690132568359375,0.10578735611736774,0.02263619470000267,0.03466395642301068
1775508870246066700,4.700066650390625,0.14109306277632713,0.017827333113551138,-0.012177764652948826
1775508870255999500,4.70999951171875,0.13516308820545672,-0.013351064482331275,-0.03325091128731146
1775508870265933600,4.71993359375,0.07970949653089046,-0.013027823877334595,0.007270913451584055
1775508870275866600,4.72986669921875,-0.015483400335907935,-0.025260113462805746,0.03892488353680819
1775508870285800400,4.739800537109375,-0.08217033368647098,-0.04839139820337295,0.018044026337843386
1775508870295733800,4.749733642578125,-0.11666063230931759,-0.05429974546432495,-0.01336737629631534
1775508870305667600,4.75966748046875,-0.14323708906769753,-0.07090542782843112,0.02034861348578706
1775508870315600600,4.7696005859375,-0.16124328587949274,-0.0717214203864336,0.07054828495383263
1775508870325534500,4.779534423828125,-0.14821604652404785,-0.061107671913504594,0.09012270832988432
1775508870335467500,4.789467529296875,-0.00915244374871254,-0.0074812956660985945,0.07477234152280725
1775508870345401600,4.799401611328125,0.15309095908403395,0.08579846105575561,0.03852891562231816
1775508870355334400,4.80933447265625,0.22501754665374754,-0.09166589178442955,0.12587937362673693
1775508870365268500,4.8192685546875,0.249584417155385,-0.08122749987840652,0.14338008686811662
1775508870375201500,4.829201416015625,0.23631577025949954,-0.12477671874761581,-0.11500627096472307
1775508870385135600,4.839135498046875,0.1845470045775175,-0.15083119745850562,-0.1414237195027992
1775508870395068700,4.849068603515625,0.16475100173950194,-0.023687749579548834,0.012506859609996899
1775508870405002500,4.85900244140625,0.17074878084957598,0.010467618000507354,0.06876730155488475
1775508870414935600,4.868935546875,0.09820902981758117,-0.0051817865520715715,0.11741875720024109
1775508870424869600,4.87886962890625,0.002509352472424507,0.009955576825141907,0.10008620360000059
1775508870434802400,4.888802490234375,-0.13683365176618098,0.037191374275088306,0.054655299170035865
1775508870444736500,4.898736572265625,-0.24388825134038924,0.03439268346726894,0.029737149279005823
1775508870454669600,4.908669677734375,-0.22854046008288859,0.0329828166693449,0.041407841192651534
1775508870464603600,4.918603759765625,-0.17194179002642632,0.01384323191344738,0.06232271025907248
1775508870474536700,4.92853662109375,-0.12068097386658191,-0.0046259062349796294,0.07850649568298831
1775508870484470500,4.938470458984375,-0.10440613089203835,-0.013631050467491149,0.08210914155114442
1775508870494403600,4.948403564453125,-0.0634387452095747,-0.017312953850626943,0.06776521184025332
1775508870504337700,4.958337646484375,-0.02728548181056976,-0.018846154767274855,0.022757263796404
1775508870514270500,4.9682705078125,0.02931026563644409,-0.017383680999279023,0.01974578875442967
1775508870524204500,4.97820458984375,0.06760755532681942,0.009344166928529738,0.02399612140897661
1775508870534137600,4.9881376953125,0.08906418485343456,0.021809680747985838,0.03882807209882885
1775508870544071700,4.99807177734375,0.058977089625596994,0.007753098344802856,0.08234384535616263
1775508870554004700,5.008004638671875,0.013903437668085097,0.04749415710270405,0.10772939356323331
1775508870563938300,5.017938232421875,0.026288871988654136,0.039674423262476916,0.10583963429387658
1775508870573871400,5.027871337890625,0.08167991982102393,0.01949555858671665,0.08768646675944328
1775508870583805400,5.037805419921875,0.09689093295633792,0.022836101186275482,0.06340601198375224
1775508870593738500,5.047738525390625,0.10755904196500778,0.011260814204812048,0.01880717446375638
1775508870603672600,5.057672607421875,0.1231213527560234,-0.017279051581025124,-0.02054923235811293
1775508870613605400,5.06760546875,0.11908698267340659,-0.011220482194423675,0.00585659880740568
1775508870623539500,5.07753955078125,0.08230185111165046,-0.011450783818960189,0.025288481040764598
1775508870633472500,5.087472412109375,0.04252338295280933,-0.005057867911458016,-0.02740477907499298
1775508870643406300,5.09740625,0.06813947024643421,-0.030837621334195136,-0.0945185047365725
1775508870653339400,5.10733935546875,0.16876023738086224,-0.07009820309877396,-0.07522774800695478
1775508870663273200,5.117273193359375,0.1986246297687292,-0.043588381835818285,0.021023644936829806
1775508870673206300,5.127206298828125,0.15330957027077674,-0.00417056368291378,0.08102480778000316
1775508870683140600,5.137140625,0.11767594683170318,0.0423024336785078,0.12225545664168894
1775508870693073400,5.147073486328125,0.06634440352320671,0.047452656048536296,0.1549807548860088
1775508870703007500,5.157007568359375,-0.018110241708159447,0.03901215996146202,0.05368731265440583
1775508870712940500,5.1669404296875,-0.17445406510829925,0.009732873985171317,-0.10480718597359955
1775508870722874400,5.176874267578125,-0.18421265805661677,-0.05030278478264808,-0.110724355861824
1775508870732807400,5.186807373046875,-0.07324526895284653,-0.044781391012668606,-0.02274294301010668
1775508870742741200,5.1967412109375,-0.04573649978041649,-0.006844751328229904,0.007755984421633184
1775508870752674300,5.20667431640625,-0.08010112619698047,0.03584638940691948,0.012730576230119913
1775508870762608600,5.216608642578125,-0.10041092377603053,-0.011831892091035842,-0.012197875859215855
1775508870772541400,5.22654150390625,-0.0595043283700943,-0.041377720049023625,0.04496689451425336
1775508870782475500,5.2364755859375,0.0005056114345788955,-0.01637771882712841,0.050402783691557124
1775508870792408600,5.24640869140625,0.022313538616895674,-0.019800094491243363,0.04674853550032712
1775508870802342400,5.25634228515625,0.050772740381956095,-0.003763736447691917,0.05758411916354671
1775508870812275500,5.266275390625,0.06826046627759932,0.00248830968439579,0.05014389529335312
1775508870822209300,5.276209228515625,0.05410685324072838,0.002467266896367073,0.0684681907441467
1775508870832142300,5.286142333984375,0.05596797093749046,0.03488309733271599,0.10289252972500398
1775508870842075400,5.296075439453125,0.03380874609947204,0.06295183847546577,0.11937398292124271
1775508870852009500,5.306009521484375,0.06498363656401634,0.02819265978336334,0.10114494627215899
1775508870861942500,5.315942626953125,0.10883329968452453,-0.0040343700826168056,0.08574756198558024
1775508870871876400,5.32587646484375,0.10389642780423164,0.004316694155335426,0.07641823643315583
1775508870881809400,5.335809326171875,0.0678828651368618,0.021646014618873596,0.01006708350875415
1775508870891743500,5.345743408203125,0.0839338362276554,0.03226969996392727,0.017020829903101546
1775508870901676500,5.355676513671875,0.023786533778905865,0.019338906720280647,0.05230511018154211
1775508870911610400,5.3656103515625,-0.040058454144001006,0.029480946028232573,0.055491220271214836
1775508870921543400,5.37554345703125,-0.050524903100728984,0.008165186277031899,0.032245131778251376
1775508870931477500,5.3854775390625,-0.02698796016871929,-0.014057751446962356,0.050160471968818454
1775508870941410600,5.39541064453125,-0.04003741135597229,-0.039099838244915,0.08138441660632378
1775508870951344400,5.405344482421875,-0.041295302462577815,-0.040898996621370316,0.05500440486865118
1775508870961277400,5.41527734375,-0.0720826549142599,-0.04676175117492676,0.061850380039587614
1775508870971211500,5.42521142578125,-0.10442425107061862,-0.058037178426980966,0.04313095692452043
1775508870981144300,5.435144287109375,-0.09403788161277771,-0.060166591671109194,0.05032324304878712
1775508870991078400,5.445078369140625,-0.012821487650275229,-0.045103462573885915,0.09936873951302841
1775508871001011500,5.455011474609375,0.20947218699753284,-0.10952829621136188,0.14071559863290747
1775508871010945500,5.464945556640625,0.14818682042956352,-0.11353227115571499,0.06348940681773238
1775508871020878600,5.474878662109375,0.05964402910172939,-0.09475625901520252,0.06886611315370537
1775508871030812400,5.4848125,-0.0007967033356428146,-0.125007604894042,0.10210784562071784
1775508871040745500,5.494745361328125,-0.07787702040672302,-0.05057692554891109,0.029031740956008432
1775508871050679600,5.504679443359375,-0.09994505982995033,-0.01651975764632225,0.030001188776362684
1775508871060612400,5.5146123046875,-0.047319385057687756,-0.022058687072992324,0.0594778513551224
1775508871070546400,5.52454638671875,0.06585457417964935,-0.030084757140278813,0.07780800115796736
1775508871080479500,5.5344794921875,0.16519114672243596,-0.01220014088153839,0.05072771393014118
1775508871090413300,5.544413330078125,0.21514847906827925,-0.0020528408765792846,0.02799072573678568
1775508871100346600,5.5543466796875,0.21898761883974074,0.04381985250413418,0.014374434447009116
1775508871110280400,5.564280517578125,0.19326690212786196,0.053398412710428236,-0.07472341521400958
1775508871120213500,5.574213623046875,0.2001765353858471,0.030001170510053632,-0.07032622143467888
1775508871130147600,5.584147705078125,0.11331716710031031,0.02468085227012634,-0.039638566497806456
1775508871140080400,5.594080322265625,0.03059387570619583,0.06310907486379146,-0.01592623046627268
1775508871150014500,5.604014404296875,-0.18234452609717844,0.09760521870553493,-0.028998697202932088
1775508871159947500,5.613947509765625,-0.25613866110444067,0.06612988398969173,-0.06839910756330937
1775508871169881300,5.62388134765625,-0.18719430421590805,-0.01104337206184864,-0.06664559669317677
1775508871179814400,5.633814453125,-0.13039865028262138,0.013601239851117133,0.005767221757210791
1775508871189748500,5.64374853515625,-0.06807926449179649,0.05172609558403492,0.09716379508096724
1775508871199681500,5.653681640625,-0.03306874138712883,0.08146715385317801,0.1600855124128051
1775508871209615400,5.663615478515625,-0.01752104364335537,0.03335106545984745,0.10184641820555553
1775508871219548400,5.67354833984375,-0.037113632863759995,-0.0017588263660669326,0.018713906689733266
1775508871229482500,5.683482421875,-0.10529986486136912,0.0034580314993858333,-0.013182429917156695
1775508871239415300,5.693415283203125,-0.1778068826675415,-0.027401801666617393,-0.0196680290767923
1775508871249348400,5.703348388671875,-0.11007073252499103,-0.04803834698200225,-0.013183653759863226
1775508871259282400,5.713282470703125,0.04017009782493114,-0.052156303694844246,0.05570952093070373
1775508871269215200,5.72321533203125,0.10172083733081817,-0.05095160408020019,0.07386402190569788
1775508871279149600,5.733149658203125,0.03996668420732021,-0.07888356710076332,0.049907200460648164
1775508871289082600,5.74308251953125,0.10359364546537399,-0.030092940446734426,0.12856843918077646
1775508871299016400,5.753016357421875,0.14779109911024568,0.11199907023906708,0.20679219066593796
1775508871308949500,5.762949462890625,0.0908271028727293,-0.03820025905668735,0.08513497391203417
1775508871318883300,5.77288330078125,0.16367372789680956,-0.06644611033201217,0.029915419322205705
1775508871328816400,5.78281640625,0.14240531441867352,-0.003395487657189369,-0.03283493263125419
1775508871338750500,5.79275048828125,0.11339140138030052,0.008613514566421508,-0.05435973202325403
1775508871348683300,5.802683349609375,0.09623743748366832,-0.0025789105772972107,-0.04531669433261268
1775508871358617600,5.81261767578125,0.09324643897414207,0.0016904373049736023,0.012360062417294829
1775508871368550700,5.822550537109375,0.08121756300628184,0.024391513934731483,0.020321542815770952
1775508871378484500,5.832484375,0.05602817669212818,0.023541034585237503,0.08674528605234809
1775508871388417500,5.84241748046875,0.0012725041538476944,0.032839024284482,0.10336970051638782
1775508871398351400,5.852351318359375,-0.04862403791546821,0.03990706297457218,0.08743088456317782
1775508871408284400,5.862284423828125,-0.06386778427660465,0.05187281057834625,0.07776135813780129
1775508871418218500,5.872218505859375,-0.020662264278531073,0.02625906137228012,0.022254264444019643
1775508871428151300,5.8821513671875,0.07451660406291484,-0.01061900916993618,0.015545432721450925
1775508871438085600,5.892085693359375,0.15930968746840954,-0.013507131826877593,0.024488069644384085
1775508871448018400,5.902018310546875,0.20409809274375437,-0.012435118681192398,0.06965087945638224
1775508871457952500,5.911952392578125,0.25031857664883134,-0.03884557122290134,0.11639944235617294
1775508871467885600,5.921885498046875,0.2638625333547592,-0.03663549395799637,0.10794531960254534
1775508871477819400,5.9318193359375,0.1560778659403324,-0.04365677089691162,0.056868591305334115
1775508871487752400,5.94175244140625,0.027922610670328137,-0.015094693279266356,0.05098108590301126
1775508871497686300,5.951686279296875,-0.09291910671591758,-0.03379647113978863,0.043476847752742465
1775508871507619300,5.961619384765625,-0.13284019821584223,-0.0015372925698757171,0.006180770994164049
1775508871517553400,5.971553466796875,-0.15093465783298016,0.046325697845220566,0.014941055353824048
1775508871527486500,5.981486572265625,-0.17184768200218675,0.0371872826218605,0.0724988162334077
1775508871537419500,5.99141943359375,-0.15702479140162467,0.008970072919130325,0.13565702746855093
1775508871547353600,6.001353515625,-0.12390402756631373,-0.01480827755331993,0.10784640753902494
1775508871557286400,6.011286376953125,-0.10552841292023658,-0.036117023041844366,0.04893114936957135
1775508871567221000,6.021220947265625,-0.034384500160813326,-0.05080488908588886,0.05447296487307176
1775508871577154000,6.031154052734375,0.046831309279799456,-0.08290683126747608,0.11175061190333217
1775508871587088000,6.041087890625,0.08268938912451267,-0.06934066272974014,0.12558752367384732
1775508871597021000,6.05102099609375,0.02788987744450569,-0.0346691623210907,0.10553539065029471
1775508871606954800,6.060954833984375,-0.02799742947220802,-0.024360534274578093,0.017426570292934776
1775508871616887800,6.0708876953125,-0.07378419813513755,-0.038410102415084836,0.025467015945445745
1775508871626821600,6.080821533203125,-0.056848845425248144,-0.030962709018588063,0.06229163926737383
1775508871636754700,6.090754638671875,0.036268998733162874,-0.03498188153207302,0.014777517088875173
1775508871646689000,6.10068896484375,0.1102723925769329,-0.3879068461745977,-0.5229613959716632
1775508871656621800,6.110621826171875,0.09361118063330649,-0.6519932514131069,-0.6440642119795084
1775508871666556000,6.120555908203125,0.011732523369789123,-0.4835276130646467,-0.35033761503044514
1775508871676489000,6.130489013671875,0.08656418473124504,-0.1585878029346466,-0.21386567271612583
1775508871686422800,6.1404228515625,0.1634410881847143,-0.020841712498664854,-0.06599202815527096
1775508871696355800,6.15035595703125,0.19124211830198765,0.00767886406481266,0.03377981226593256
1775508871706289700,6.16028955078125,0.21904899363815783,0.03428746952712536,0.02507401630617678
1775508871716222700,6.17022265625,0.18188450736999512,0.021560089901089666,-0.00389269658960402
1775508871726156800,6.18015673828125,0.1101724393337965,0.011341478225588798,-0.007866367727238685
1775508871736089600,6.190089599609375,0.051232759109139436,0.035865678629279134,-0.02218624070910737
1775508871746023000,6.20002294921875,0.03229600344896316,0.05448328533768654,-0.0130200972286053
1775508871755957000,6.20995703125,0.0033627544313669204,0.0809276401489973,0.040432365490309895
1775508871765889800,6.219889892578125,0.011270751076936722,0.10911036306023597,0.14375203458620234
1775508871775824000,6.229823974609375,0.024953823992609977,0.1697287901520729,0.22313947782218455
1775508871785757000,6.2397568359375,0.07884791126549244,0.2288806518226862,0.2907000522021204
1775508871795690800,6.249690673828125,0.13492927944958208,0.2844447181344032,0.3413915805740282
1775508871805623800,6.259623779296875,0.15503157175779342,0.2666325825899839,0.3561548134092241
1775508871815557600,6.2695576171875,0.1698024399101734,0.18122516667842864,0.3366791285667568
1775508871825490700,6.27949072265625,0.08725041342973709,0.1263064125329256,0.24733320416249333
1775508871835425000,6.289425048828125,-0.035850481060147286,0.048260465300083155,0.11321997206984087
1775508871845357800,6.29935791015625,-0.3416822706162929,-0.001004208606481552,-0.03294730696454644
1775508871855292000,6.3092919921875,-0.4284726653188467,-0.08091945684254169,-0.08073794452948495
1775508871865225000,6.319224853515625,-0.22867548463940618,-0.14752747973799704,0.0266909865161404
1775508871875158800,6.32915869140625,-0.1635281819462776,-0.08171966730952263,0.1831359139368869
1775508871885091800,6.339091796875,-0.1689712497830391,0.04125204784274101,0.16864833797160536
1775508871895025700,6.349025634765625,-0.163794139406085,0.10317688135802745,0.12661376144904643
1775508871904958700,6.358958740234375,-0.18506372192800044,0.07381751588284968,0.11262233497025445
1775508871914892800,6.368892822265625,-0.17525193748772144,0.012789923468232154,0.0864998507907614
1775508871924825900,6.378825927734375,-0.1371516316741705,-0.018584873482584953,-0.01868890011264011
1775508871934760000,6.388760009765625,-0.087306527531147,-0.04716565580070019,-0.13231348919430747
1775508871944692700,6.398692626953125,-0.01574117448925972,-0.09611468788683414,-0.26791990072047334
1775508871954625800,6.408625732421875,0.004203296908736229,-0.18316461030840872,-0.3248602420877665
1775508871964560000,6.418559814453125,-0.028784195935726165,-0.24571312867999076,-0.27960895027471705
1775508871974492700,6.42849267578125,0.019569792866706848,-0.17284487634599208,-0.19063631616225465
1775508871984426800,6.4384267578125,0.26626959449648857,0.15952771413326264,-0.11742071169530972
1775508871994359800,6.44835986328125,-0.09008417555093765,0.3265764714211225,-0.08873235908318311
1775508872004294000,6.4582939453125,-0.11048808115422724,0.24574703094959258,0.20055819164719432
1775508872014227000,6.46822705078125,-0.07238134559988975,0.10262275460660457,0.32115280240457506
1775508872024160800,6.478160888671875,-0.0471475356221199,0.07584989849328995,0.11026222737594507
1775508872034093800,6.48809375,-0.003877718216180801,0.036331542575359345,-0.09043060523527674
1775508872044028000,6.49802783203125,0.05619184282124042,-0.010354220753908157,-0.09386836113161406
1775508872053960700,6.507960693359375,0.03947685486376285,-0.09016834670305252,-0.05179870416251942
1775508872063894800,6.517894775390625,0.06563245586156845,-0.14247779513299463,-0.032694291184702885
1775508872073827800,6.527827880859375,0.11476619686484336,-0.15235153889358044,0.019142521065077744
1775508872083762000,6.537761962890625,0.14765549003183842,-0.1036409917384386,0.07200877226071897
1775508872093695000,6.547695068359375,0.09583294833600521,-0.05664893893897533,0.10906595766292884
1775508872103628800,6.55762890625,0.07120470303595065,-0.027012510088086125,0.1281387059940025
1775508872113561900,6.567561767578125,0.009032032239437103,-0.05550736768841743,0.08311011702092364
1775508872123496000,6.577495849609375,0.033736265385150906,-0.058035424861311906,0.03020923746989574
1775508872133428700,6.5874287109375,0.07941022132337093,-0.038705870491266246,0.02135458022451494
1775508872143361800,6.59736181640625,0.11964637012183665,-0.04171732726693153,-0.009085305929789319
1775508872153296000,6.6072958984375,0.17715455623865126,-0.06226853238642215,0.015247463555028661
1775508872163228700,6.617228759765625,0.26616145794689655,-0.08345452827811241,0.043173384993872604
1775508872173163000,6.6271630859375,0.2871329343050718,-0.04408756352961063,0.03907308723530732
1775508872183095800,6.637095703125,0.2236509344756603,-0.008275660914182663,0.035186066901241424
1775508872193030000,6.64702978515625,0.1050958667218685,0.006069675302505493,0.06003352160966023
1775508872202963000,6.656962890625,-0.023985271221399304,0.035409167033433914,0.06675821762164123
1775508872212896800,6.666896728515625,-0.11234919885098933,0.03684358375072479,0.03268805780673865
1775508872222829800,6.676829833984375,-0.17670213629603385,0.031637247279286386,0.036912306171958335
1775508872232763600,6.686763671875,-0.1467068110048771,0.025353052443265914,0.02135176264634356
1775508872242696700,6.69669677734375,-0.05962006370425224,0.03351414706707,-0.0045392051990609614
1775508872252630800,6.706630859375,-0.006814940711855888,0.04128945724368095,0.028739142084447666
1775508872262563600,6.7165634765625,0.04443418501019478,0.05091594824492931,0.038656980715086685
1775508872272498000,6.726497802734375,0.1213917524844408,0.022659575575590132,0.058858395149372515
1775508872282431000,6.736430908203125,0.15960896267592906,-0.01572539239823818,0.03008972557634115
1775508872292364800,6.74636474609375,0.17822130868732927,-0.05886836855411529,-0.01151879842071794
1775508872302297900,6.7562978515625,0.06953589304089546,-0.03237959007918834,-0.017849494713009333
1775508872312231700,6.766231689453125,-0.06930559141635895,-0.00902560249865055,0.009908034189254976
1775508872322164700,6.776164794921875,-0.1792488981693983,0.0010825345396995544,-0.024120451041543856
1775508872332097800,6.786097900390625,-0.2659101135343313,-0.02946048776209354,-0.05691572294926736
1775508872342031600,6.796031494140625,-0.29421675508618356,-0.06765723968744278,-0.033188550108205525
1775508872351964700,6.805964599609375,-0.21479250523746013,-0.06679506990015506,-0.01581098832245916
1775508872361899000,6.81589892578125,-0.08745031991600989,-0.04654781616330147,0.01240208406127058
1775508872371831800,6.825831787109375,0.09580313771963118,-0.013527590093016623,0.05921449227777775
1775508872381766000,6.835765869140625,0.23640344854295253,0.04921498954594135,0.15036246570190415
1775508872391699000,6.845698974609375,0.2263309673398733,0.04176175093054771,0.05762417717929929
1775508872401632800,6.8556328125,0.26206162141263484,-0.23123802860379217,-0.08361998450551182
1775508872411565800,6.86556591796875,0.28151100277006624,-0.02310848838686943,0.1658343034641817
1775508872421499600,6.875499755859375,0.30320377914011476,0.18354454953670502,0.35644524772316216
1775508872431432700,6.8854326171875,0.33413550849854945,0.27654841192662716,0.4250453942839056
1775508872441366800,6.89536669921875,0.2912251720547676,0.20107903718352316,0.3264532834328711
1775508872451299800,6.9052998046875,0.23512626821398733,0.07004559612870216,0.08896499879527836
1775508872461233000,6.91523291015625,0.06806757405400275,-0.07249123571515083,-0.26432852516500277
1775508872471167000,6.9251669921875,-0.11687807445228099,-0.2502648006349802,-0.49358409298099576
1775508872481099800,6.935099853515625,-0.11704583223462105,-0.14156184933185575,-0.011534041655622423
1775508872491033900,6.945033935546875,-0.04598258349597454,0.03755962306559086,0.25654296758901324
1775508872500967000,6.954966796875,0.044964346364140505,0.08312661149799823,0.17279798673065377
1775508872510900700,6.964900634765625,0.014644611424207686,0.03933949221968651,0.07944054339639842
1775508872520833800,6.974833740234375,-0.05121522345244884,0.014427169281244278,0.045202073243306946
1775508872530768000,6.984767822265625,-0.03320844211876392,-0.023735680374503135,-0.0056568293184507635
1775508872540701000,6.994700927734375,-0.01322188514471054,-0.04841010290384292,-0.042662005972210315
1775508872550634800,7.004634765625,-0.05856266360580921,-0.038650340911746024,-0.13508159306761808
1775508872560567600,7.014567626953125,-0.06048106444776058,-0.04347381554543972,-0.14520722009688614
1775508872570501600,7.024501708984375,-0.06236556302011013,-0.0672206018358469,-0.1287417681873776
1775508872580434700,7.0344345703125,-0.056176060730218885,-0.08751695541143417,-0.09786091963280923
1775508872590368500,7.044368408203125,-0.04644260222315788,-0.11714753904342651,-0.04766510235597379
1775508872600301600,7.054301513671875,-0.058125441232323646,-0.11341595129966735,0.015585399405658245
1775508872610235600,7.064235595703125,-0.04622749816775322,-0.06481295617222786,0.05137846032329835
1775508872620168700,7.074168701171875,-0.04768880289196968,-0.031010639813542365,0.08600942779215984
1775508872630101800,7.084101806640625,-0.04450198954939842,-0.017463175976276397,0.14370608568578028
1775508872640035600,7.09403564453125,-0.06502104596495628,-0.022809797701239583,0.20682872328404336
1775508872649968600,7.10396875,-0.10145429534912109,-0.017492402070760724,0.20225151502899824
1775508872659902500,7.11390234375,-0.0935153190433979,-0.022515783190727234,0.13699150007585995
1775508872669835500,7.12383544921875,-0.07652852840721606,-0.05486205552220344,0.09950746299712918
1775508872679769600,7.13376953125,-0.094486794424057,-0.06139817929267883,0.11633190267845056
1775508872689702400,7.143702392578125,-0.06304945363104343,-0.02627425894141197,0.1303055012396071
1775508872699636500,7.153636474609375,-0.03882920460999012,0.04038929353356361,0.15466230005398393
1775508872709569800,7.16356982421875,-0.00816986245214939,0.05172200393080711,0.1600390063899569
1775508872719503600,7.173503662109375,0.009730535897612571,0.0511994413614273,0.19828673958387225
1775508872729436700,7.183436767578125,0.01949906571805477,0.036085458859801293,0.17120025094412267
1775508872739370500,7.19337060546875,0.050017538100481033,0.020530746853351593,0.11974324549189767
1775508872749303600,7.203303466796875,0.08564473179876804,0.02688333075046539,0.05447089164699428
1775508872759236600,7.213236572265625,0.03376139982640743,0.0040080665975809095,-0.06686054548495449
1775508872769170400,7.22317041015625,-0.011378303104639052,-0.046648938450217246,-0.09650670114541426
1775508872779103500,7.233103515625,-0.05602876121401786,-0.07496551687419414,-0.077046113407379
1775508872789037600,7.24303759765625,-0.1263058280110359,-0.028962475112080572,-0.014553818735061213
1775508872798970400,7.252970458984375,-0.17125673037171363,0.042103696236014364,0.04353257826166227
1775508872808904700,7.26290478515625,-0.1804378156930208,0.07385024910867213,0.09281281506353989
1775508872818837800,7.272837646484375,-0.2615945884227753,0.07906944506168365,0.13762177906972356
1775508872828771600,7.282771484375,-0.4498743497878313,0.08087035700380801,0.0950134760461282
1775508872838704600,7.29270458984375,-0.42096623521149157,0.06375906320512294,0.11284920252868905
1775508872848638500,7.302638427734375,-0.3209311590105295,0.04750175588726997,0.11911792580094188
1775508872858571500,7.312571533203125,-0.060169514280557626,0.027519875088334082,0.07043056772514246
1775508872868505600,7.322505615234375,0.12734101627767086,0.009704816934466362,0.029993681323342024
1775508872878438400,7.3324384765625,0.1540922450810671,-0.025101708030700682,-0.05365817789146676
1775508872888372700,7.342372802734375,0.13924597360491753,-0.05511749158799648,-0.09005653862534091
1775508872898305500,7.352305419921875,0.1495382350385189,-0.062295420393347734,-0.036843739014351735
1775508872908238600,7.362238525390625,0.19011340653300285,-0.004500234028697013,0.045530455814301964
1775508872918172700,7.372172607421875,0.17378361850082874,0.0534346530675888,0.08761195848481729
1775508872928105500,7.38210546875,0.12717910371422766,0.033980011013150214,0.096260197304748
1775508872938039600,7.39203955078125,0.17116437591314315,-0.013590133935213088,0.021589124199328943
1775508872947972600,7.40197265625,0.19674305380582807,-0.06336567997336387,-0.08325159871769137
1775508872957906400,7.411906494140625,0.21501286998987196,-0.10759235971271991,-0.12561737082283944
1775508872967839500,7.421839599609375,0.18574702801704407,-0.1439221487224102,-0.14113181475098244
1775508872977773600,7.431773681640625,0.23199673801660536,-0.09534896421134471,-0.04528203401118517
1775508872987706600,7.44170654296875,0.374700158599019,0.03084405107498169,0.058913632467947896
1775508872997640700,7.451640625,0.46350013955831526,0.0071270754009485245,-0.06228667996446602
1775508873007573500,7.461573486328125,0.5079799172759056,0.10759177519083023,0.00825302895726636
1775508873017507600,7.471507568359375,0.4526210181474685,0.2519067226231098,0.09492261029174551
1775508873027440600,7.481440673828125,0.043647418546676635,0.191282450312376,0.22319025816135107
1775508873037373400,7.49137353515625,-0.11508183868527412,0.16308277626633644,0.28959136030785737
1775508873047307500,7.5013076171875,-0.1815752952903509,0.10124386746883392,0.0658361891395878
1775508873057240600,7.511240478515625,-0.24648762018382547,0.007011924588680267,-0.09723127082660794
1775508873067174700,7.521174560546875,-0.24931670612990856,0.00007657236754894256,-0.11314847773620858
1775508873077107700,7.531107666015625,-0.2211106023430824,-0.03334405119717121,-0.11776377124562859
1775508873087041500,7.54104150390625,-0.1384416714847088,-0.08937281241118908,-0.06285975801153108
1775508873096974600,7.550974609375,-0.03488485089838505,-0.11494272247552871,-0.033573928130022246
1775508873106908700,7.56090869140625,0.06791735192835331,-0.10740355914235114,0.06485978185548447
1775508873116841500,7.570841552734375,0.09993278487026691,-0.09072481154203414,0.15184128781650214
1775508873126775600,7.580775634765625,0.09101999509632587,-0.07634148140251636,0.17873477463480084
1775508873136708600,7.59070849609375,-0.027331659039855002,-0.04509001857042312,0.1887195775544271
1775508873146642700,7.600642578125,-0.06081599549055099,-0.0304775558501482,0.11254927886719815
1775508873156575700,7.61057568359375,-0.04203121552169323,-0.07404547941982746,0.015196457170287612
1775508873166508800,7.6205087890625,-0.031792145580053326,-0.09823884043395519,-0.013126448246487416
1775508873176442600,7.630442626953125,-0.010036240845918655,-0.07093757653236389,0.030632963324279987
1775508873186375700,7.640375732421875,0.023220132067799566,-0.03963467577397823,0.01605491204697173
1775508873196309500,7.6503095703125,0.06871522430777549,-0.04321837947964668,0.016763761285936925
1775508873206242600,7.66024267578125,0.1049263553738594,-0.05707271730899811,-0.0021185356570873407
1775508873216176400,7.67017626953125,0.0706102442741394,-0.024517770662903785,-0.023031550693139433
1775508873226109400,7.680109375,0.010147884526848793,0.015910685837268828,-0.04879948581391945
1775508873236043800,7.690043701171875,-0.026415713238716124,0.012713351100683211,-0.055867172877560364
1775508873245976600,7.6999765625,-0.04298866237699985,0.0077186115533113475,-0.05166239183121361
1775508873255910700,7.70991064453125,-0.04459668209552765,0.001093055933713913,-0.015415075206896289
1775508873265843700,7.71984375,-0.018026655077934266,0.06035188511013984,-0.00307843248109566
1775508873275777500,7.729777587890625,0.04390519270002842,0.06635200230777263,-0.022522512042324524
1775508873285710600,7.739710693359375,0.0580447772115469,0.051796238210797305,-0.02775882124362979
1775508873295643600,7.7496435546875,0.05554010091423988,0.07330956636071205,-0.012584706052602267
1775508873305577500,7.759577392578125,-0.007848959934711457,0.06846154180765152,-0.007238244157843291
1775508873315510500,7.769510498046875,-0.07118833642303943,0.029901801788806914,0.01031714699639706
1775508873325444400,7.7794443359375,-0.04897708913683891,-0.004519523251056671,0.05506376123991794
1775508873335377400,7.78937744140625,0.0020686229676008224,0.023645079481601713,0.08980313011985272
1775508873345311700,7.799311767578125,0.04182020311951637,0.025166005438566206,0.061783360951673236
1775508873355244500,7.80924462890625,0.08234159860014915,0.008408347383141517,0.07135013482205103
1775508873365178600,7.8191787109375,0.10757190144658088,0.024375147321820258,0.06401403348003513
1775508873375111700,7.829111572265625,0.11757950071990489,0.040328503257036206,0.06591937391101382
1775508873385045500,7.83904541015625,0.14818506686389446,0.04859773443043232,0.08423572351736948
1775508873394978600,7.848978515625,0.17918460076153278,0.02629647077322006,0.059708993229875336
1775508873404911600,7.85891162109375,0.17396248219907282,0.03226093213558197,0.08088274156134576
1775508873414845400,7.868845458984375,0.11750409739613532,0.023803484913706777,0.1015680761882104
1775508873424778500,7.878778564453125,0.039108021551370616,0.024116788646578787,0.05297845656557474
1775508873434712600,7.888712646484375,-0.013864274701476097,0.022990999487042425,0.05750643255114555
1775508873444645600,7.898645751953125,-0.04071545674800873,0.0009656301617622375,0.03334563579948153
1775508873454579700,7.908579833984375,-0.03658054890036583,-0.020312720188498497,0.009316294824203942
1775508873464512500,7.918512451171875,-0.02516717448234558,-0.03193359987735748,0.0044436427199631
1775508873474446600,7.928446533203125,-0.008130699485540389,-0.03404547746479511,0.01780479591311305
1775508873484379600,7.938379638671875,0.045478141105175014,-0.04736030158996582,0.016521429013600573
1775508873494313500,7.9483134765625,0.09398761273026465,-0.04117021477818489,0.02585875292610144
1775508873504246500,7.95824658203125,0.09103811527490616,-0.019243045130372047,0.011447839518269757
1775508873514179600,7.9681796875,0.06391688411533832,-0.007667173627018928,0.010884862740110838
1775508873524113700,7.97811376953125,0.03655541445910931,-0.01224456454515457,-0.00021102039368706753
1775508873534046700,7.988046630859375,0.040022213786840434,-0.01253565644621849,-0.003921196598303504
1775508873543980500,7.99798046875,0.02562427060008049,-0.030074820268154143,-0.031171926755900494
1775508873553913600,8.00791357421875,0.008694763109087943,-0.02443827568590641,-0.02531283916388638
1775508873563847400,8.017847412109376,-0.02353109771311283,-0.01002162779867649,0.023556624880013987
1775508873573780200,8.0277802734375,-0.05515723907649517,-0.017552607825398445,0.05229136935055721
1775508873583714300,8.03771435546875,-0.0925479353159666,-0.039727614754438395,0.06855221119921188
1775508873593647400,8.0476474609375,-0.10540683236718178,-0.018963059145212173,0.06507863507082219
1775508873603581200,8.057581298828126,-0.11050386324524879,-0.009990063616633415,0.02957155605428852
1775508873613514200,8.06751416015625,-0.05289630840718746,-0.008259294301271439,-0.01966994703924283
1775508873623447300,8.077447265625,0.01271861179769039,-0.11895780333578586,-0.008783549358349409
1775508873633381000,8.087381103515625,0.14458148941397667,-0.18880232393443583,0.017640418539592063
1775508873643314200,8.097314208984375,0.10858137075006961,0.018904606956243512,-0.10844284819536842
1775508873653248300,8.107248291015624,0.02740706236362457,0.051557168757915495,-0.01944532623682171
1775508873663181300,8.117181396484375,-0.02020925981402397,0.03997954368889332,0.17360250804657115
1775508873673115100,8.127115234375,-0.017846622335910795,0.0633645109295845,0.1610400001260452
1775508873683048200,8.137048095703125,-0.02046469587981701,0.044722938823699945,0.09511415080847219
1775508873692982300,8.146982177734374,0.027802199161052702,-0.005317980152368545,0.06214923512199893
1775508873702915000,8.1569150390625,0.07153086625039577,-0.024340076008439064,0.09244459367250092
1775508873712849200,8.16684912109375,0.12032967621088027,-0.018015549162030218,0.12084897824409417
1775508873722782200,8.1767822265625,0.1828127281308174,-0.01452419991493225,0.20991229544784873
1775508873732715000,8.186715087890626,0.21885551689267158,0.0022568390160799027,0.22308939160276203
1775508873742649300,8.1966494140625,0.16756547463834284,0.01737666673660278,0.1612132560674101
1775508873752582400,8.20658251953125,0.07638415150046349,0.03810615103244781,0.15428274441817774
1775508873762516200,8.21651611328125,0.028102643412351608,-0.021640753921866415,0.1282648531243205
1775508873772449300,8.22644921875,-0.02501987496614456,-0.023405425506830214,0.1019735334502533
1775508873782383000,8.236383056640625,-0.14090075507462024,0.1545364817172289,0.07249253718967083
1775508873792316200,8.246316162109375,-0.07356149529516696,0.10088847815990447,-0.035287417517020365
1775508873802250200,8.256250244140626,0.027250995019078253,-0.040734745970368386,-0.0045717968609882515
1775508873812183000,8.26618310546875,0.1018587844967842,-0.0914279913753271,0.05565888672200962
1775508873822117400,8.276117431640625,0.11762801603674888,-0.06602817718088627,-0.04185256188600324
1775508873832050400,8.286050537109375,0.04784662380218505,-0.09636194064617157,-0.09040949851516633
1775508873841983200,8.295983154296875,-0.04630933123230934,-0.10816168403327464,-0.11462516269264741
1775508873851917300,8.305917236328124,-0.33382278928756715,-0.21925182273387908,-0.30194877411033955
1775508873861850400,8.315850341796875,-0.26639585122466086,-0.08452361881434917,-0.0650046976183541
1775508873871784200,8.3257841796875,-0.04884498718976974,0.031763504007458684,0.13734646925968116
1775508873881717200,8.33571728515625,0.09906944603919983,-0.12486731964051723,-0.04464390963758342
1775508873891651000,8.345651123046874,0.14793664506077767,-0.07030278576016426,-0.09198899539210834
1775508873901584100,8.355584228515625,0.13836626816093922,-0.055304538592696184,-0.06339246751558966
1775508873911518200,8.365518310546875,0.18122341311275958,-0.06543196485340595,0.04893783483868464
1775508873921451300,8.375451171875,0.20391046121716497,-0.03840425719618797,0.06464939507439267
1775508873931385300,8.38538525390625,0.15641630411446095,0.0020499182671308517,0.05523747840558644
1775508873941318400,8.395318359375,0.14031681770682333,0.04452537042498588,0.06908353246378246
1775508873951251200,8.405251220703125,0.1255225686788559,0.059117374879121776,0.07908081583906897
1775508873961185300,8.415185302734375,0.07463935365974902,0.09259235897958278,0.0419412722159177
1775508873971118300,8.425118408203126,-0.006290624576807022,0.12043547467291355,0.07158164658956229
1775508873981052200,8.43505224609375,-0.05712649332284927,0.1102156939536333,0.10388960533780045
1775508873990985200,8.444985107421875,-0.0744745184868574,0.08274258061647415,0.1088586624546442
1775508874000919300,8.454919189453125,-0.09013912060856819,0.04762567452788353,0.10349709888887591
1775508874010852400,8.464852294921876,-0.07641454663872718,0.028519407519698142,0.08423972383905201
1775508874020786200,8.4747861328125,-0.006385901644825935,-0.027778233763575553,0.08541854922692291
1775508874030719200,8.48471923828125,0.06895078662931918,-0.047771220478415484,0.07068702670424244
1775508874040652300,8.49465234375,0.054362873828411096,-0.03225041074156761,0.06288545870836824
1775508874050586000,8.504586181640626,0.0002034136176109314,-0.019405542215704917,0.019995142139308152
1775508874060519200,8.514519287109374,-0.0224953249245882,0.0007025953114032745,-0.004059705453272909
1775508874070453200,8.524453369140625,-0.0059223757863044735,-0.025311551389098165,0.014208608326851389
1775508874080386000,8.534385986328125,0.005437807139754295,-0.02831950103342533,0.01595340160098858
1775508874090320400,8.5443203125,0.00940203459560871,0.022490064227581024,-0.010141352038073818
1775508874100253400,8.55425341796875,-0.007181435936689376,0.024290391647815702,-0.0025113674746418835
1775508874110187300,8.564187255859375,0.03209142078757286,-0.0063005614489316936,0.021156285740016028
1775508874120120300,8.574120361328125,0.06161795952320098,-0.05924129351973533,0.015019062768277944
1775508874130054100,8.58405419921875,0.06050386080145836,-0.057606385794281956,0.05025604129778221
1775508874139987200,8.5939873046875,0.0414788423359394,-0.037007249879837036,0.04775277150627225
1775508874149920300,8.603920166015625,-0.025881460231542586,-0.013678981262445449,0.053778397604497145
1775508874159854000,8.61385400390625,-0.033220132556557654,0.006578793868422508,0.05805404736339114
1775508874169787100,8.623787109375,-0.009750409641861916,0.02716214769184589,0.037947971645917275
1775508874179721500,8.633721435546875,-0.0047691140979528425,-0.010948094993829727,0.038392502826312555
1775508874189654300,8.643654296875,0.016327449944615362,-0.03150982150733471,0.03392781503503211
1775508874199588400,8.65358837890625,0.055987844681739805,-0.01904606125354767,0.022975372659647837
1775508874209521400,8.663521484375,0.07471767959296703,-0.027892215532064436,0.022471596989128737
1775508874219455200,8.673455322265625,0.034595512562990184,-0.026061492973566053,0.014125795731472317
1775508874229388300,8.68338818359375,-0.03323240751624107,-0.018558569997549054,-0.010096947782411006
1775508874239321300,8.6933212890625,-0.1341366677671671,-0.010015782579779624,0.005957436254064669
1775508874249255200,8.703255126953126,-0.18408230967521666,0.0027332243561744686,0.03499937380627961
1775508874259188200,8.713188232421874,-0.19769933161735534,0.09146014007925987,0.129090563358739
1775508874269122000,8.7231220703125,-0.191233934995532,0.1563181044369936,0.1552013571004383
1775508874279055400,8.733055419921875,-0.1763514231622219,0.1625444316059351,0.10909265387360938
1775508874288989200,8.7429892578125,-0.10000643462836742,0.07246551675200462,0.11094662944353186
1775508874298922200,8.752922119140624,-0.11659516585767268,-0.014079963278770445,0.097725155290775
1775508874308856300,8.762856201171875,-0.11489011550545691,-0.025334347742795943,0.051345325238676735
1775508874318789000,8.7727890625,-0.20080606546103952,-0.015881459742784498,-0.004577729986497433
1775508874328723200,8.78272314453125,-0.2285007125943899,0.0014607202023267745,-0.023501488026138394
1775508874338656300,8.79265625,-0.15892682563066482,0.018964812710881233,0.019056767593941183
1775508874348589000,8.802589111328125,-0.23100772697925567,0.04058218575716018,0.09099041280881501
1775508874358523100,8.812523193359375,-0.1578162340402603,0.046235096952319144,0.10947951603303663
1775508874368456200,8.822456298828126,-0.020420856738090513,0.015520809736847876,0.12975200467584655
1775508874378390300,8.832390380859374,-0.051878655797243114,-0.04406652074158191,0.06531635738341138
1775508874388323300,8.8423232421875,-0.08317278872728347,-0.02612403681576252,-0.0525261142547708
1775508874398257200,8.852257080078125,-0.17131752064824105,-0.001903203272819519,-0.1252800742930267
1775508874408190200,8.862190185546876,-0.2286579489827156,0.01255786827802658,-0.09558673675628379
1775508874418124300,8.872124267578124,-0.14012860165834426,-0.2743096930891275,-0.25133582739997656
1775508874428057000,8.88205712890625,-0.09100304396152496,-0.2384475215911865,-0.17354095058506352
1775508874437990100,8.891990234375,-0.08570786016285419,0.009289806392788886,0.025140158611256628
1775508874447924200,8.90192431640625,-0.10251637162268161,0.11564531778693199,0.13135993306282906
1775508874457857000,8.91185693359375,-0.02889291700720787,0.22672435057163237,0.26490648944973944
1775508874467791400,8.921791259765625,0.07626023285984992,0.4060363771051168,0.33189558408465236
1775508874477724400,8.931724365234375,0.07367898419499397,0.45061143189072606,0.3660892743811011
1775508874487658200,8.941658203125,0.08890694846510887,0.3098556382447481,0.36806744258627294
1775508874497591300,8.95159130859375,0.08678630304932594,0.23235563445687293,0.3660714099308476
1775508874507525000,8.961525146484375,0.24087328743338585,0.11558861916363239,0.16099482754375785
1775508874517458200,8.971458251953125,0.49070145021677014,-0.0005482815325260162,0.03318089652471244
1775508874527391200,8.98139111328125,0.25654490381777284,-0.05300444495677948,-0.10904011083561926
1775508874537325000,8.991324951171874,0.29443244366347787,-0.23492519268393516,-0.05788874639961868
1775508874547258000,9.001258056640625,-0.12202595873475074,-0.15216741449832916,0.49949591084066775
1775508874557192400,9.0111923828125,-0.4337479753732681,0.1343757372200489,0.3351107832714915
1775508874567126000,9.0211259765625,-0.43666240151524544,0.0382592957675457,-0.19319168146718294
1775508874577060000,9.03106005859375,-0.4238999505758285,-0.12233633985817431,-0.32244923542328174
1775508874586993000,9.040992919921875,-0.2981961801111698,-0.18467209226191042,-0.37613143351115286
1775508874596927000,9.050927001953125,-0.1090910738378763,-0.3622445816516876,-0.13884210551176218
1775508874606860000,9.060860107421876,-0.166679339453578,-0.3487508938282728,0.08933627979308366
1775508874616792800,9.070792724609374,-0.3150876936793327,-0.1265460665076971,0.009961604707129298
1775508874626727200,9.08072705078125,-0.3725345049977302,0.05319207648336887,-0.03630936727616936
1775508874636660200,9.09066015625,-0.38299160160422324,0.06287409706413745,0.07201222002655268
1775508874646594000,9.100593994140626,-0.3410340358406305,0.008091536518931389,0.0660222954293713
1775508874656527000,9.110527099609374,-0.17423545392155645,-0.0012292495340108871,-0.10800466684065758
1775508874666461000,9.1204609375,0.06632628334462642,-0.005440145227313041,-0.2090344531673938
1775508874676394000,9.13039404296875,0.39637832192182537,-0.020477555361390114,-0.16155107318703085
1775508874686327800,9.140327880859376,0.6292331380724907,0.01924596773982048,-0.14568141347989438
1775508874696260900,9.1502607421875,0.7150655013978481,0.008153495839238167,-0.12240531344115733
1775508874706194000,9.16019384765625,0.6818085439622402,-0.019953823748230935,-0.15234894507769495
1775508874716128000,9.1701279296875,0.5720476080387831,0.33992695138156415,-0.015426884375698863
1775508874726061000,9.18006103515625,0.4688490993708372,0.4430483031600713,0.1479567014681175
1775508874735995100,9.1899951171875,0.4076543336957693,0.4102764988929033,0.20557090524267405
1775508874745928000,9.199927978515625,0.23074352308511734,0.3528431315779686,0.10842764149308204
1775508874755862000,9.209862060546875,-0.027253917628526685,0.30660218940675255,0.11825502536129205
1775508874765795000,9.219795166015626,-0.17796178096830845,0.37991877003014085,0.1960187946518883
1775508874775729000,9.22972900390625,-0.408576124715805,0.42145548003315925,0.3333109307752922
1775508874785662000,9.239661865234375,-0.40036534573137755,0.3909691563546657,0.3865558699570596
1775508874795595000,9.249594970703125,-0.31132980245053765,0.24345745870769023,0.2737246232101694
1775508874805528800,9.25952880859375,-0.0993622915059328,0.5243360087931156,0.3319864772384986
1775508874815462000,9.2694619140625,0.032490649238228794,0.46206338475346564,0.5382914323767647
1775508874825396000,9.27939599609375,0.03651508244872093,0.28354280085861683,0.6311220205590129
1775508874835329000,9.2893291015625,0.11839023258090019,0.15503566341102124,0.4890966088360175
1775508874845263000,9.29926318359375,0.18154606919586658,0.0792284350156784,0.2982538651151582
1775508874855196000,9.30919580078125,0.2809457701027393,-0.028179800301790237,0.12763583450578153
1775508874865130000,9.3191298828125,0.29270576600134374,-0.17657061887085437,-0.038308359073661265
1775508874875063000,9.32906298828125,0.23024024973809717,-0.07978080820143223,-0.06774805977605283
1775508874884995800,9.338995849609375,0.10285130266547203,-0.03880348564684391,-0.060649918208643794
1775508874894930000,9.348929931640624,-0.21791209856271743,-0.1061550203859806,-0.1146104948464781
1775508874904863000,9.358863037109375,-0.49552960102558136,0.01988718825280666,-0.1963691424595192
1775508874914797000,9.368797119140625,-0.40622751576304433,0.2241086151152849,-0.19697803160548208
1775508874924730000,9.378730224609376,-0.055980830419063564,0.32628070334494114,-0.17040281695611775
1775508874934664000,9.388663818359374,0.2227718135535717,0.224335994130373,-0.10203282588943839
1775508874944597000,9.398596923828125,0.44942777506411075,0.0720002373278141,0.025395539878122507
1775508874954531000,9.408531005859375,0.5951455750316381,0.07594166842997074,-0.02264463373478502
1775508874964463900,9.4184638671875,0.3973182331204414,0.18530454494655133,-0.17194416464660317
1775508874974397000,9.42839697265625,0.24166473007202147,0.24370471146702766,-0.2970067511308938
1775508874984331000,9.4383310546875,0.1957669022500515,0.1963064159542322,-0.3769169213330373
1775508874994263800,9.448263916015625,0.10030629435777663,0.01989946321249008,-0.5281652116924525
1775508875004198100,9.4581982421875,0.01869827072918415,-0.08199146998822689,-0.5902986464571207
1775508875014131000,9.468130859375,0.034572131687402724,-0.10246434917449951,-0.5400539850698783
1775508875024065000,9.47806494140625,0.08468377781212329,-0.018245266264677047,-0.3075887527586892
1775508875033998000,9.487998046875,0.196153855741024,0.013894085317850111,-0.07911894675921648
1775508875043932000,9.497931884765626,0.3099123368680477,-0.05407938071191311,-0.022754852643609047
1775508875053865000,9.507864990234374,0.3295066796541214,-0.16264672293663024,0.004311835317127407
1775508875063798000,9.517798095703125,0.20771452967524529,-0.21552608020901678,0.08640161458067595
1775508875073731800,9.52773193359375,0.2441863575041294,-0.1086602812051773,0.07360942609012126
1775508875083665000,9.537664794921875,0.17784721467792985,-0.09459551549553871,-0.052521154951862985
1775508875093599000,9.547598876953124,0.01273088675737381,-0.18176409586071968,-0.015661094990372656
1775508875103532000,9.557531982421875,-0.1532891120046377,-0.1934527800887823,0.08723404681682587
1775508875113466000,9.567466064453125,-0.029300328764319417,-0.12554068885743616,0.24063180682770907
1775508875123399000,9.57739892578125,0.05997194588184356,-0.17575637987852097,0.10944222536310554
1775508875133332000,9.58733203125,-0.627871202069521,0.6390881771326065,0.025647286149486897
1775508875143266000,9.59726611328125,-0.5257680874228478,0.015775076758861542,0.19228848554976283
1775508875153198800,9.60719873046875,-0.4449807325273752,-0.6965764895051717,0.6721285692080855
1775508875163133000,9.6171328125,-0.3391413539618254,-0.4524117593109607,0.6014708325304091
1775508875173066000,9.62706591796875,0.14553601365983485,-0.12816928379535675,0.4310936614722013
1775508875183000000,9.637,0.5595955382227897,-0.009054244071245193,0.861372645560652
1775508875192933000,9.64693310546875,0.5640870044231414,-0.017102525970339774,0.9980809173814952
1775508875202867000,9.656866943359375,0.09626841714382171,-0.19250234749615192,0.8788641708485782
1775508875212800000,9.666800048828126,-0.23135376393795012,-0.28178981971144673,0.7032991488236934
1775508875222733000,9.676733154296874,-0.4540834919154644,-0.04611410092115402,0.4833958033785224
1775508875232667000,9.6866669921875,-0.3294762845158577,0.14378127894699572,-0.11475370270945132
1775508875242600000,9.696599853515625,-0.3113566904574632,0.30827158392369747,-0.3108640115696937
1775508875252534000,9.706533935546876,-0.4576864848434925,0.3007715835571289,-0.3245369284175336
1775508875262466800,9.716466796875,-0.5029202957987785,0.3153460523545742,-0.16685029384000225
1775508875272401200,9.726401123046875,-0.3455377770006656,0.4895271457403898,-0.131186275262665
1775508875282334200,9.736334228515625,-0.03899287073910236,0.7634843721300363,-0.24616527462797239
1775508875292267000,9.74626708984375,0.39820845995843407,1.2792477828890085,-1.1035727976836263
1775508875302201000,9.756201171875,0.24202128842473028,1.760813740491867,-1.3123901740342379
1775508875312134100,9.766134033203125,0.07028817271292209,1.5543419043540954,-0.9992819637343286
1775508875322068000,9.77606787109375,0.19274901573359965,1.1710422597140073,-0.5753635276537388
1775508875332001000,9.7860009765625,0.2870943558603525,0.6144798055768013,0.03245495687033981
1775508875341934800,9.795934814453124,0.13088964866995811,-0.013999883779883385,0.28656850535534323
1775508875351868000,9.805867919921875,-0.33673955351710316,-0.42217678004503245,0.4069315723791718
1775508875361802000,9.815802001953125,-1.0958932029664517,-0.8328080837249755,0.5263780725473538
1775508875371735000,9.825735107421876,-1.7754940077513455,-1.1527893946647643,0.5425046661576256
1775508875381668000,9.835668212890624,-2.044118056419492,-1.2076368371397257,0.5832776983117685
1775508875391602000,9.845601806640625,-1.7386510085225104,-0.9542243861287831,0.5657162861254066
1775508875401535000,9.855534912109375,-1.2281167305886744,-0.40768297526836395,0.5048739140845835
1775508875411469000,9.865468994140626,-0.7047253091692924,0.051074938198924065,0.22628606875222174
1775508875421401900,9.87540185546875,-0.32713352078199387,0.1640203493773937,-0.11491795336045324
1775508875431336000,9.8853359375,-0.49870238584280013,0.2381207738548517,-0.30855518663804976
1775508875441269000,9.89526904296875,-1.2961731987267733,0.27563480421304704,-0.34980628463272
1775508875451201800,9.905201904296876,-1.359360015001893,0.478586649531126,-0.5371810965146869
1775508875461136100,9.91513623046875,-1.0122574729025364,0.7115338201403617,-0.6455816308051348
1775508875471069200,9.925069091796875,-1.2323872475147246,0.6426093369960785,-0.5813822764866053
1775508875481003000,9.9350029296875,-1.2959873207658528,0.5142126741856337,-0.3610011574618518
1775508875490936000,9.94493603515625,-1.0526806687057018,0.6872153714418411,-0.2211840694380924
1775508875500870000,9.954869873046874,-0.988926866197586,0.7949766579806804,0.04579002006594091
1775508875510803000,9.964802978515625,-1.6066156969487666,0.6656535279750824,0.2834402537995949
1775508875520736000,9.974736083984375,-2.364951015752554,1.2166139243215321,-0.7814307285133749
1775508875530669800,9.984669921875,-2.5667846706956623,1.703712966132164,-1.3714698472514748
1775508875540603000,9.994602783203124,-2.233029101425409,2.106144012221694,-1.5320768810540437
1775508875550537000,10.004536865234375,-1.6766127777606248,2.3309148906379935,-1.7764010395936667
1775508875560470000,10.014469970703125,-2.146358533710241,1.7190654335647821,-0.87149875664711
1775508875570403300,10.0244033203125,-2.4367186133682726,-0.16612404365837574,3.8138413718149065
1775508875580336400,10.03433642578125,-2.146034708583355,0.023836802661418913,4.917575643670559
1775508875590270200,10.044270263671875,-1.2585130378961562,2.533511931169033,1.1164303795605897
1775508875600203300,10.054203369140625,-1.7172054849117993,2.083144829428196,0.16900975516252217
1775508875610136300,10.06413623046875,-2.056098417070508,2.709749372562766,1.3803218467488885
1775508875620070100,10.074070068359376,-2.3819582646548745,3.8021027109652756,0.4678351000227034
1775508875630003200,10.084003173828124,-3.946631008887291,1.8639345077484846,-1.238623219294846
1775508875639937300,10.093937255859375,-3.3556279404878615,0.418404860290885,-0.7708315200224518
1775508875649870300,10.103870361328125,-0.9642664721935987,0.8227613214850426,0.147296301330626
1775508875659804400,10.113804443359374,1.6981939104497432,1.4854220973849295,0.2859397059325129
1775508875669737200,10.1237373046875,2.285152671894431,1.9658856467038393,0.8184305257391185
1775508875679670300,10.133670166015625,-0.13326982180476188,1.2676643126010894,0.023604857069067654
1775508875689604400,10.143604248046875,-1.9072125084608793,-0.5640180308401584,-0.4365099874325096
1775508875699537200,10.153537109375,-2.846659012174606,-0.4518348362058401,-0.5470149466563016
1775508875709471200,10.16347119140625,-3.4957056887418028,1.1897796934098004,-0.8762538422197103
1775508875719404300,10.173404296875,-3.607062953945994,2.567204941934347,-0.5865603001790121
1775508875729338400,10.18333837890625,-3.514198792287707,3.546303072556853,-0.5977504968330264
1775508875739271400,10.193271484375,-3.1332804898262023,3.8879169541120526,-0.37703477555904535
1775508875749204500,10.20320458984375,-2.0985363136969504,3.7917911603093146,-0.14878558090715668
1775508875759138300,10.21313818359375,1.8045155195742844,2.8754496378511187,-0.39048455117549746
1775508875769071400,10.2230712890625,1.6510124725580215,2.5449492709845303,-0.726207073137164
1775508875779005200,10.233005126953126,2.5618904689133166,2.137220703008771,-0.3119165162973106
1775508875788938200,10.242938232421874,4.669278928238153,1.8794108938217162,0.2060397283308208
1775508875798872300,10.252872314453125,6.533606819218397,1.9034873504579066,1.0004525418836623
1775508875808805000,10.26280517578125,8.236402085983753,1.2441840682923793,2.183846698974818
1775508875818738200,10.27273828125,9.649307228690386,0.1721633238226175,2.5674150775536893
1775508875828672500,10.282672607421874,10.113653755944966,-0.43733284812271594,1.4621210090354084
1775508875838605300,10.292605224609375,9.436506189531087,-0.6667272946864367,0.17957984715681521
1775508875848539400,10.302539306640625,7.549141121834516,-0.9210714735895394,-0.7095309558853506
1775508875858472400,10.312472412109376,4.971936763933301,-1.2769517809063196,-1.1813542487613855
1775508875868406300,10.32240625,2.3255942801371217,-0.6029372518211603,-0.7921198072448372
1775508875878339300,10.33233935546875,0.12860592164695261,0.008867197066545486,-0.14009194117607549
1775508875888272400,10.3422724609375,-1.0224201166070996,0.15062836836278437,-0.16474358561802654
1775508875898206200,10.352206298828126,-1.8774059837400912,0.15183072988986968,-0.15181376048875972
1775508875908139300,10.36213916015625,-2.5366660112857815,0.17233517325818537,0.21631660953219978
1775508875918073300,10.3720732421875,-2.7430200662627815,0.2009685625463724,0.3247998171374202
1775508875928006400,10.38200634765625,-2.60346488057822,0.09141630093753338,0.1743802326871082
1775508875937940500,10.3919404296875,-2.277605617515743,-0.017977555239200593,-0.07517101285103708
1775508875947873300,10.401873291015624,-1.745750026872754,-0.155763393163681,-0.15741817463338373
1775508875957806300,10.411806396484375,-1.3223945584371686,-0.20043957023620604,-0.07661796938949264
1775508875967740400,10.421740478515625,-0.9438108364030718,-0.1647363886922598,0.041466133551415985
1775508875977673200,10.431673095703125,-0.7014920263364911,0.24830665230453014,0.20380407823324204
1775508875987607300,10.441607177734374,-0.7247513213708996,0.42957741169035435,0.257882034173049
1775508875997540400,10.451540283203125,-0.45573125912249085,-0.6115776543945074,-0.7877231797210872
1775508876007474400,10.461474365234375,-0.2872881248667836,0.28407237769067284,-0.0563807164568454
1775508876017407500,10.471407470703125,0.043455695366859434,0.6655003832399845,0.18810732740759847
1775508876027340300,10.48134033203125,0.45046559367924927,0.5344330399155617,0.2279841779069975
1775508876037274400,10.4912744140625,0.6378866923883557,0.20588965233564377,-0.10438858610219322
1775508876047207400,10.50120751953125,0.7562368852198124,-0.16938158414959906,-0.0762263671228662
1775508876057141200,10.511141357421875,1.0155515460118651,-0.332028891608119,0.2510430549984798
1775508876067074300,10.52107421875,1.1399299130916596,-0.014302666118741035,0.268511035014037
1775508876077008100,10.531008056640625,0.8940414278447627,-0.03030512189269066,0.2866270488758571
1775508876086941200,10.540941162109375,0.4479465965956449,-0.23631284765005112,0.14835768348444253
1775508876096874200,10.550874267578125,0.1717898143351078,-0.09391396297216414,0.16401092396192252
1775508876106808300,10.560808349609376,-0.07378595170080661,-0.16502221989631652,0.21019681147765368
1775508876116741400,10.570741455078124,-0.5455825027003884,-0.44475159994661806,-0.03267672812854871
1775508876126675500,10.580675537109375,-0.70021630731225,-0.25010113450586796,-0.025796658891765398
1775508876136608300,10.590608154296875,-0.6711784288764,-0.20259528696537016,-0.04912209623125381
1775508876146542300,10.600542236328126,-0.57777884516716,-0.20638123524487018,0.10196744163618422
1775508876156475400,10.610475341796874,-0.3642009764164686,-0.001589315018057823,0.3123178271071985
1775508876166408200,10.620408203125,-0.124528296944499,0.1309907709568739,0.4957875213094055
1775508876176342300,10.63034228515625,0.04689823703616857,0.03623451194167137,0.46397871685549613
1775508876186275300,10.640275390625,0.027464345508813857,-0.09885843363702297,0.14936534442333504
1775508876196209400,10.65020947265625,-0.11518997523486614,0.07009001979231834,0.012469404543284325
1775508876206142500,10.660142578125,-0.12274608970284462,0.32315584932267666,0.00956940421888139
1775508876216075500,10.670075439453125,0.11271335598826408,0.3245709768176079,-0.09097729759891517
1775508876226009300,10.68000927734375,0.3384785061389208,0.12383739207088947,-0.16615370814427732
1775508876235942400,10.6899423828125,0.48648295573890205,-0.0675163699120283,0.16775633930163458
1775508876245876200,10.699876220703125,0.39933308007419105,-0.3669032211124897,0.3965936817055568
1775508876255809300,10.709809326171875,0.48770752909779547,-0.22425182297825813,0.5771146456373855
1775508876265743400,10.719743408203126,0.8794885863572358,-0.01650046842396259,0.7561234879732132
1775508876275676200,10.72967626953125,1.1373284984216094,0.04323533061444759,0.738790733443573
1775508876285609200,10.739609130859375,1.191048398171365,0.7141781971693039,-0.15564484481792895
1775508876295543600,10.74954345703125,1.1929518937051296,1.3248849139481782,-1.9609891068339347
1775508876305476400,10.759476318359376,0.7791282237246632,0.19742869798243046,-1.6708210426166652
1775508876315410400,10.769410400390624,-0.714302992592752,-1.319293962073326,-0.012323968190606683
1775508876325343500,10.779343505859375,-1.730057952222228,-1.11456458568871,0.2969360970474779
1775508876335277300,10.78927734375,-2.0604498902782797,-0.45126083571016784,0.42356235265191644
1775508876345210400,10.79921044921875,-1.4946160421878099,0.0053010290175676345,0.24424824375919996
1775508876355143400,10.809143310546874,-0.6892088833466172,0.011373042407631873,0.5860117629181594
1775508876365077200,10.8190771484375,0.02516162152439356,-0.17095745516419408,0.9316560690332204
1775508876375010300,10.82901025390625,0.44840427723526954,-0.3563841651856899,0.5649034353725612
1775508876384944400,10.8389443359375,0.6241472131103277,-0.19651216765940188,0.24212485839705913
1775508876394877400,10.84887744140625,0.7308876321688293,0.8757797949671745,0.5328687862735242
1775508876404810500,10.858810546875,0.42013212247490883,0.4713660506278276,0.26066061377460137
1775508876414744300,10.868744384765625,0.03922901758253574,0.39048867936134335,-0.25983778961701315
1775508876424677400,10.878677490234375,0.009016250148415565,0.431437360343337,-0.5589304984427989
1775508876434611200,10.888611083984374,0.23321780424416064,0.283303731405735,-0.645574105085805
1775508876444544300,10.898544189453125,0.6134919635832309,0.21193243963122366,-0.6416093661732971
1775508876454478300,10.908478271484375,0.9232868115514516,0.12497896332144737,-0.6883769625671208
1775508876464411100,10.9184111328125,1.0304805273354052,0.052183776223659516,-0.6418892060279846
1775508876474344200,10.92834423828125,1.0121204025194048,0.05458557666838169,-0.5038737240660935
1775508876484278500,10.938278564453125,0.7487637728601694,0.04717325458526611,-0.41915896659381685
1775508876494211300,10.94821142578125,0.3401180900394916,-0.05643091227412223,-0.36950258995592594
1775508876504145400,10.9581455078125,-0.11272066251188516,-0.16181553280949593,-0.2763701144839637
1775508876514078500,10.968078369140626,-0.4478817146658897,-0.06446633469164371,-0.1409477360215038
1775508876524012300,10.97801220703125,-0.7319786422759295,-0.13861644352972508,0.13995968396537936
1775508876533945300,10.9879453125,-0.9075885994210838,-0.03346387818455696,0.25443761107390744
1775508876543878400,10.99787841796875,-0.8653671220242977,-0.056841246640682214,0.3527213318292051
1775508876553812200,11.007812255859376,-0.8491367027133703,-0.1499485694050789,0.5016019797418266
1775508876563745500,11.01774560546875,-0.7207996611356735,-0.15334697967171668,0.3554703382764011
1775508876573679400,11.027679443359375,-0.6675608229011297,-0.20554010824561117,0.199315973033756
1775508876583612400,11.0376123046875,-0.6753811412632464,-0.23824001632034777,0.23894389027338472
1775508876593546500,11.04754638671875,-0.6322659298971295,-0.040808395728468894,0.15034503964306786
1775508876603479300,11.057479248046874,-0.6493889141336083,-0.0354009837269783,0.26343137539587913
1775508876613412400,11.067412353515625,-0.6668512133270502,0.19435352832078934,0.3311491130989045
1775508876623346700,11.0773466796875,-0.5145248088747263,0.3378945687711239,0.30102937597678975
1775508876633279500,11.087279541015626,-0.2791191391974687,0.4571662603616714,0.2869672040830366
1775508876643213600,11.097213623046875,-0.004281038320064544,0.559897151517868,0.17313889085650444
1775508876653146600,11.107146728515625,0.20956746406555174,0.5103729498922824,-0.0292634125537239
1775508876663079400,11.117079345703125,0.4479772839948535,0.4192167611956596,0.04661258849520236
1775508876673013500,11.127013427734376,0.6674257983446121,0.6626555152028799,-0.48197884925268586
1775508876682946600,11.136946533203124,0.5553983787938952,0.5313187072873116,-0.7778351151742041
1775508876692880400,11.14688037109375,0.4055710976809263,0.4066033633381128,-0.8248380546938627
1775508876702813400,11.1568134765625,0.4884434421569109,0.35437399440705775,-0.8274895190507173
1775508876712746500,11.16674658203125,0.5507733493417502,0.3168208010822534,-0.6777602914847434
1775508876722680300,11.176680419921874,0.5400409429252148,0.18734920251667497,-0.4850971274036914
1775508876732613600,11.186613525390625,0.4719014726787805,-0.02497720486819744,-0.34088984159696845
1775508876742547500,11.19654736328125,0.3752864340543747,-0.1740028142094612,-0.35003015651647
1775508876752480500,11.20648046875,0.27540917876362797,-0.2117828020274639,-0.42928434702791274
1775508876762414300,11.216414306640624,0.06979308267235755,-0.1533282749712467,-0.3527813549207523
1775508876772347400,11.226347412109375,-0.18582476942837237,-0.19002163659632204,-0.28757410220131274
1775508876782280400,11.236280517578125,-0.29069004226475953,-0.014752747973799704,-0.10868260263483971
1775508876792214300,11.24621435546875,-0.19342004686295985,0.16529986779391764,-0.20738832992818204
1775508876802147300,11.256147216796874,-0.08092033362537622,0.1690524983257055,-0.014180281848087907
1775508876812081400,11.266081298828125,-0.19570231258124113,0.17093232072293757,0.04363766433764249
1775508876822014200,11.27601416015625,-0.14335048631429673,0.04093815958797931,-0.304850432102289
1775508876831948500,11.285948486328126,-0.13229279346615075,0.04975391872823238,-0.16944195430101827
1775508876841881600,11.295881591796874,-0.10835428399592638,0.06417933444380759,-0.0017828465624712406
1775508876851814400,11.305814453125,-0.09874006795436144,-0.06603986761868,0.0801609848917462
1775508876861748500,11.31574853515625,-0.20056436565965413,-0.21021219170987604,0.007766578880883753
1775508876871681500,11.325681640625,-0.2530672908350825,-0.2983797199845314,-0.2707241627525538
1775508876881615400,11.335615478515624,-0.37920389975905416,-0.4950122991532087,-0.1088304136076942
1775508876891548400,11.34554833984375,-0.555950751979649,-0.6367910061061381,0.4392659350771457
1775508876901481500,11.3554814453125,-0.4799184826567769,-0.487743769454956,0.1331611372658983
1775508876911415300,11.365415283203125,-0.2926964136511087,-0.6116431208461522,-0.30254971741186454
1775508876921348400,11.375348388671876,-0.16048165385723112,-0.4230693449705839,0.17462922074580564
1775508876931282400,11.385282470703125,-0.19544103129655122,-0.16799743631482122,0.8947549829415976
1775508876941215500,11.395215576171875,-0.30237872649282216,-0.0849187556117773,1.130154369008541
1775508876951148500,11.4051484375,-0.28307518334686754,-0.10649404308199882,0.36655272717438636
1775508876961082400,11.415082275390626,-0.309715937513113,-0.3480272557288408,-0.22202064812639727
1775508876971015400,11.425015380859374,-0.2778384517371654,0.04160919071733951,0.5310700662884861
1775508876980949500,11.434949462890625,-0.11469926910847425,-0.003965981021523475,0.3087827483162284
1775508876990882300,11.44488232421875,-0.09425269340723752,-0.15133154819607733,0.13465128449210897
1775508877000816400,11.45481640625,-0.3026584202170372,-0.14025135125517843,0.033445885870140045
1775508877010749400,11.46474951171875,-0.49604836420267817,-0.11900105795562267,-0.015330273867119102
1775508877020682200,11.47468212890625,-0.6041743924006819,-0.10797171441912651,-0.009326539940293877
1775508877030616600,11.484616455078125,-0.5981716448545455,-0.11261807892024517,-0.0651825201369822
1775508877040549600,11.494549560546876,-0.538057952414453,-0.1590448990523815,-0.17830122378943486
1775508877050483500,11.5044833984375,-0.29261019667238,-0.1606575949460268,-0.22376129951495677
1775508877060416500,11.51441650390625,0.011806173127889633,-0.23397592913508414,-0.27434633530508723
1775508877070349600,11.524349609375,0.2364890809997916,-0.3711041799336672,-0.4375339967180043
1775508877080283400,11.534283447265626,0.3708081195965409,-0.426633174932003,-0.4308583914116025
1775508877090216400,11.544216552734374,0.37558337117433543,-0.4411678962409496,-0.2874804143021814
1775508877100150300,11.554150390625,0.3056146396741271,-0.3993459395557642,-0.0501709202975966
1775508877110083300,11.564083251953125,0.18490648553967476,-0.3455997363209724,0.18448206784883514
1775508877120016400,11.574016357421876,0.05932634145468473,-0.23817454986870287,0.3961980699840933
1775508877129950500,11.583950439453124,-0.05364888034015894,-0.1450467688381672,0.4719700809355825
1775508877139883500,11.593883544921875,-0.1880444913044572,-0.08223696918189526,0.3927602044899016
1775508877149817300,11.6038173828125,-0.32976299250274893,-0.020290508356690405,0.3737987527798861
1775508877159750400,11.61375048828125,-0.3695543201431632,0.05087035553753376,0.3942856604915112
1775508877169684500,11.6236845703125,-0.2856543861851096,0.11432722092568874,0.3907954802881926
1775508877179617300,11.6336171875,-0.22411270676851272,0.11931553073227405,0.3883232449557632
1775508877189550300,11.64355029296875,-0.22790303896218536,0.11478080991208553,0.3320768954683095
1775508877199484400,11.653484375,-0.20095073462873697,0.09524141218364238,0.28411979702897366
1775508877209417200,11.663417236328126,-0.2209983741402626,0.06320201384425163,0.2700085252964869
1775508877219351600,11.6733515625,-0.25238982996493575,0.03126081518232822,0.26553295078501105
1775508877229284600,11.68328466796875,-0.2602007959768176,-0.027979309293627738,0.16423176363836972
1775508877239217400,11.693217529296875,-0.3012976532578468,-0.09919161111414432,0.15571677754297852
1775508877249151500,11.7031513671875,-0.2969783287540078,-0.15615385378599167,0.1962770619955845
1775508877259084500,11.71308447265625,-0.2390551320955157,-0.16529636066257952,0.19588059175759553
1775508877269018400,11.723018310546875,-0.17517098120599983,-0.16457213804125784,0.18166794200986622
1775508877278951400,11.732951416015625,-0.11101005920171737,-0.1471072084993124,0.23125214846068992
1775508877288884500,11.742884521484376,-0.06446808825731278,-0.12727262721657753,0.2664547418050468
1775508877298818300,11.752818359375,-0.023005028012394905,-0.10172025280892848,0.3053874433221295
1775508877308751400,11.76275146484375,-0.00021510405540466307,-0.07102759290337562,0.27250932913627474
1775508877318685400,11.772685546875,0.02593319041877985,-0.055364744347333905,0.23358720381213352
1775508877328618500,11.782618408203126,-0.068216334874928,-0.021442016479372977,0.22004255298646166
1775508877338551600,11.792551513671874,-0.32337475277036426,0.022585925817489624,0.09446078319996595
1775508877348485400,11.8024853515625,-0.6053519117474555,-0.0015559972703456878,-0.142616893076431
1775508877358418400,11.81241845703125,-0.8794950160980224,-0.037078561550378794,-0.16359324653912335
1775508877368352500,11.8223525390625,-0.8987889146327972,-0.02029343096613884,-0.1031003363899421
1775508877378285300,11.832285400390624,-0.7987982620954514,0.02450491118133068,-0.04348796280180104
1775508877388218400,11.84221826171875,-0.4602329544559121,0.05259294154644012,0.0018971731075434943
1775508877398152400,11.85215234375,0.02379939326047897,0.09414017294347286,0.06279425046069081
1775508877408085200,11.862085205078126,-0.022457038740813732,0.011146247914433478,0.25199399904776365
1775508877418019600,11.87201953125,0.0849687322333455,0.08208557801246642,0.15403079721741378
1775508877427952600,11.88195263671875,0.22025486229658126,0.055200493696331975,0.06799983344688079
1775508877437886500,11.891886474609375,0.2341255667388439,0.02297638643980026,0.023845878733729477
1775508877447819500,11.901819580078126,0.20175386770516632,0.0011047463715076445,-0.07584568810905329
1775508877457752600,11.911752685546874,0.09021569297611713,-0.0006119944185018539,-0.08950616560042836
1775508877467686400,11.921686279296875,-0.051095104204118245,0.008559154030680655,-0.11208948846887797
1775508877477619500,11.931619384765625,-0.12055179452896117,0.03062953154146671,-0.14231317002265714
1775508877487553300,11.94155322265625,-0.08494768944531679,0.025642390778660772,-0.18794435539823023
1775508877497486300,11.951486328125,0.0036953473865985868,0.03378361165821552,-0.2628572470360435
1775508877507419400,11.96141943359375,0.07017506772726774,-0.003933247795701027,-0.3456699154803529
1775508877517353500,11.971353515625,0.10902180799394845,-0.014423077628016472,-0.33551556468009947
1775508877527286500,11.98128662109375,0.13753069411963223,-0.012645546561479568,-0.2172852171023376
1775508877537220400,11.991220458984374,0.16579525009542703,-0.02682370951771736,-0.19144091054340823
1775508877547153400,12.0011533203125,0.08806962085813283,-0.05930325284004211,-0.14216058240998536
1775508877557086500,12.01108642578125,0.07521861485242844,-0.028352818781137466,-0.12004294082452542
1775508877567021300,12.021021240234376,0.11617460235804318,-0.027292496073246,-0.08319311912925914
1775508877576954400,12.030954345703124,0.10222118806838988,-0.05202011009454727,0.02806003724648617
1775508877586888400,12.040888427734375,0.08774696477502585,-0.05932604919373989,0.04479873487311415
1775508877596821500,12.050821533203125,0.004752455224096775,-0.06357493880987167,0.04030375240826979
1775508877606754600,12.060754638671876,-0.0726341513171792,-0.0462806896597147,-0.0034013968081679194
1775508877616688400,12.0706884765625,-0.13853198011666534,-0.007608136916160583,-0.037256539332633835
1775508877626621400,12.080621337890625,-0.17168956883102654,-0.0036100071907043457,-0.06028597570050042
1775508877636555500,12.090555419921875,-0.1712254584506154,0.02149286988377571,-0.0721753929653205
1775508877646488300,12.10048828125,-0.16650807453989983,-0.007968202400207519,-0.08068919175062328
1775508877656421400,12.11042138671875,-0.1456079098522663,-0.03969605057239532,-0.10025626293728128
1775508877666355500,12.12035546875,-0.09682458972185849,-0.027560791620612143,-0.06986425277900415
1775508877676288300,12.130288330078125,-0.05170213018655777,-0.02458499068021774,-0.05157769095613621
1775508877686222600,12.14022265625,-0.051525312314927574,-0.04700783489048481,-0.06922089510785881
1775508877696155600,12.15015576171875,-0.03259469413459301,0.006781038442254066,-0.05706568021343555
1775508877706088400,12.16008837890625,-0.0324643457531929,-0.01357435184419155,-0.019085315551701933
1775508877716022500,12.1700224609375,-0.03693155429512262,-0.015214520266652107,-0.0004558220426784828
